ExperimentName,Subject,Session,Clock.Information,DataFile.Basename,Display.RefreshRate,ExperimentVersion,Group,RandomSeed,RuntimeVersion,RuntimeVersionExpected,SessionDate,SessionStartDateTimeUtc,SessionTime,StudioVersion,Block,List1,List1.Cycle,List1.Sample,List3,List3.Cycle,List3.Sample,Procedure[Block],Running[Block],Trial,CardIMG1[Trial],CardIMG2[Trial],CardIMG3[Trial],CardIMG4[Trial],CardStim[Trial],Category,CorrectAnswer[Trial],FeedbackDisplay2.ACC,FeedbackDisplay2.CRESP,FeedbackDisplay2.DurationError,FeedbackDisplay2.OnsetDelay,FeedbackDisplay2.OnsetTime,FeedbackDisplay2.OnsetToOnsetTime,FeedbackDisplay2.RESP,FeedbackDisplay2.RT,FeedbackDisplay2.RTTime,List2,List2.Cycle,List2.Sample,List4,List4.Cycle,List4.Sample,PracticeList,PracticeList.Cycle,PracticeList.Sample,Procedure[Trial],Running[Trial],Slide5.ACC,Slide5.CRESP,Slide5.DurationError,Slide5.OnsetDelay,Slide5.OnsetTime,Slide5.OnsetToOnsetTime,Slide5.RESP,Slide5.RT,SubTrial,CardIMG1[SubTrial],CardIMG2[SubTrial],CardIMG3[SubTrial],CardIMG4[SubTrial],CardStim[SubTrial],ColorList,ColorList.Cycle,ColorList.Sample,ColorList2,ColorList2.Cycle,ColorList2.Sample,CorrectAnswer[SubTrial],NonPerseverativeError,NumberList,NumberList.Cycle,NumberList.Sample,NumberList1,NumberList1.Cycle,NumberList1.Sample,PerseverativeError,Procedure[SubTrial],Running[SubTrial],ShapeList,ShapeList.Cycle,ShapeList.Sample,ShapeList1,ShapeList1.Cycle,ShapeList1.Sample,Stimulus.ACC,Stimulus.CRESP,Stimulus.DurationError,Stimulus.OnsetDelay,Stimulus.OnsetTime,Stimulus.OnsetToOnsetTime,Stimulus.RESP,Stimulus.RT,TrialType
Wisconsin,1154,4,"<?xml version=""1.0""?>\n<Clock xmlns:dt=""urn:schemas-microsoft-com:datatypes""><Description dt:dt=""string"">E-Prime Primary Realtime Clock</Description><StartTime><Timestamp dt:dt=""int"">0</Timestamp><DateUtc dt:dt=""string"">2023-02-11T09:00:19Z</DateUtc></StartTime><FrequencyChanges><FrequencyChange><Frequency dt:dt=""r8"">2929853</Frequency><Timestamp dt:dt=""r8"">28685016228</Timestamp><Current dt:dt=""r8"">0</Current><DateUtc dt:dt=""string"">2023-02-11T09:00:19Z</DateUtc></FrequencyChange></FrequencyChanges></Clock>\n",Wisconsin-1154-4,59.957,1.0.0.563,1,-1379182243,2.0.10.356,2.0.10.356,02-11-2023,2/11/2023 9:00:19 AM,17:00:19,2.0.10.252,1,1.0,1.0,1.0,,,,Practicebloc,List1,1,Button1.png,Button2.png,Button3.png,Button4.png,Greencircle3.png,顏色,z,0.0,,0.0,17.0,49180.0,0.0,,0.0,0.0,,,,,,,1.0,1.0,1.0,PracticeTrialProc,PracticeList,1.0,z,0.0,0.0,48196.0,0.0,z,963.0,,,,,,,,,,,,,,,,,,,,,,,,,,,,,,,,,,,,,,
Wisconsin,1154,4,"<?xml version=""1.0""?>\n<Clock xmlns:dt=""urn:schemas-microsoft-com:datatypes""><Description dt:dt=""string"">E-Prime Primary Realtime Clock</Description><StartTime><Timestamp dt:dt=""int"">0</Timestamp><DateUtc dt:dt=""string"">2023-02-11T09:00:19Z</DateUtc></StartTime><FrequencyChanges><FrequencyChange><Frequency dt:dt=""r8"">2929853</Frequency><Timestamp dt:dt=""r8"">28685016228</Timestamp><Current dt:dt=""r8"">0</Current><DateUtc dt:dt=""string"">2023-02-11T09:00:19Z</DateUtc></FrequencyChange></FrequencyChanges></Clock>\n",Wisconsin-1154-4,59.957,1.0.0.563,1,-1379182243,2.0.10.356,2.0.10.356,02-11-2023,2/11/2023 9:00:19 AM,17:00:19,2.0.10.252,1,1.0,1.0,1.0,,,,Practicebloc,List1,2,Button1.png,Button2.png,Button3.png,Button4.png,Redstar2.png,顏色,c,0.0,,0.0,22.0,52783.0,0.0,,0.0,0.0,,,,,,,2.0,1.0,2.0,PracticeTrialProc,PracticeList,0.0,c,0.0,1.0,51732.0,0.0,z,1027.0,,,,,,,,,,,,,,,,,,,,,,,,,,,,,,,,,,,,,,
Wisconsin,1154,4,"<?xml version=""1.0""?>\n<Clock xmlns:dt=""urn:schemas-microsoft-com:datatypes""><Description dt:dt=""string"">E-Prime Primary Realtime Clock</Description><StartTime><Timestamp dt:dt=""int"">0</Timestamp><DateUtc dt:dt=""string"">2023-02-11T09:00:19Z</DateUtc></StartTime><FrequencyChanges><FrequencyChange><Frequency dt:dt=""r8"">2929853</Frequency><Timestamp dt:dt=""r8"">28685016228</Timestamp><Current dt:dt=""r8"">0</Current><DateUtc dt:dt=""string"">2023-02-11T09:00:19Z</DateUtc></FrequencyChange></FrequencyChanges></Clock>\n",Wisconsin-1154-4,59.957,1.0.0.563,1,-1379182243,2.0.10.356,2.0.10.356,02-11-2023,2/11/2023 9:00:19 AM,17:00:19,2.0.10.252,1,1.0,1.0,1.0,,,,Practicebloc,List1,3,Button1.png,Button2.png,Button3.png,Button4.png,Bluetriangle1.png,形狀,x,0.0,,0.0,16.0,57386.0,0.0,,0.0,0.0,,,,,,,3.0,1.0,3.0,PracticeTrialProc,PracticeList,1.0,x,0.0,1.0,55335.0,0.0,x,2031.0,,,,,,,,,,,,,,,,,,,,,,,,,,,,,,,,,,,,,,
Wisconsin,1154,4,"<?xml version=""1.0""?>\n<Clock xmlns:dt=""urn:schemas-microsoft-com:datatypes""><Description dt:dt=""string"">E-Prime Primary Realtime Clock</Description><StartTime><Timestamp dt:dt=""int"">0</Timestamp><DateUtc dt:dt=""string"">2023-02-11T09:00:19Z</DateUtc></StartTime><FrequencyChanges><FrequencyChange><Frequency dt:dt=""r8"">2929853</Frequency><Timestamp dt:dt=""r8"">28685016228</Timestamp><Current dt:dt=""r8"">0</Current><DateUtc dt:dt=""string"">2023-02-11T09:00:19Z</DateUtc></FrequencyChange></FrequencyChanges></Clock>\n",Wisconsin-1154-4,59.957,1.0.0.563,1,-1379182243,2.0.10.356,2.0.10.356,02-11-2023,2/11/2023 9:00:19 AM,17:00:19,2.0.10.252,1,1.0,1.0,1.0,,,,Practicebloc,List1,4,Button1.png,Button2.png,Button3.png,Button4.png,greenstar2.png,形狀,v,0.0,,0.0,25.0,62707.0,0.0,,0.0,0.0,,,,,,,4.0,1.0,4.0,PracticeTrialProc,PracticeList,1.0,v,0.0,1.0,59938.0,0.0,v,2740.0,,,,,,,,,,,,,,,,,,,,,,,,,,,,,,,,,,,,,,
Wisconsin,1154,4,"<?xml version=""1.0""?>\n<Clock xmlns:dt=""urn:schemas-microsoft-com:datatypes""><Description dt:dt=""string"">E-Prime Primary Realtime Clock</Description><StartTime><Timestamp dt:dt=""int"">0</Timestamp><DateUtc dt:dt=""string"">2023-02-11T09:00:19Z</DateUtc></StartTime><FrequencyChanges><FrequencyChange><Frequency dt:dt=""r8"">2929853</Frequency><Timestamp dt:dt=""r8"">28685016228</Timestamp><Current dt:dt=""r8"">0</Current><DateUtc dt:dt=""string"">2023-02-11T09:00:19Z</DateUtc></FrequencyChange></FrequencyChanges></Clock>\n",Wisconsin-1154-4,59.957,1.0.0.563,1,-1379182243,2.0.10.356,2.0.10.356,02-11-2023,2/11/2023 9:00:19 AM,17:00:19,2.0.10.252,1,1.0,1.0,1.0,,,,Practicebloc,List1,5,Button1.png,Button2.png,Button3.png,Button4.png,BlueCross4.png,數目,x,0.0,,0.0,21.0,68494.0,0.0,,0.0,0.0,,,,,,,5.0,1.0,5.0,PracticeTrialProc,PracticeList,0.0,x,0.0,1.0,65259.0,0.0,c,3211.0,,,,,,,,,,,,,,,,,,,,,,,,,,,,,,,,,,,,,,
Wisconsin,1154,4,"<?xml version=""1.0""?>\n<Clock xmlns:dt=""urn:schemas-microsoft-com:datatypes""><Description dt:dt=""string"">E-Prime Primary Realtime Clock</Description><StartTime><Timestamp dt:dt=""int"">0</Timestamp><DateUtc dt:dt=""string"">2023-02-11T09:00:19Z</DateUtc></StartTime><FrequencyChanges><FrequencyChange><Frequency dt:dt=""r8"">2929853</Frequency><Timestamp dt:dt=""r8"">28685016228</Timestamp><Current dt:dt=""r8"">0</Current><DateUtc dt:dt=""string"">2023-02-11T09:00:19Z</DateUtc></FrequencyChange></FrequencyChanges></Clock>\n",Wisconsin-1154-4,59.957,1.0.0.563,1,-1379182243,2.0.10.356,2.0.10.356,02-11-2023,2/11/2023 9:00:19 AM,17:00:19,2.0.10.252,1,1.0,1.0,1.0,,,,Practicebloc,List1,6,Button1.png,Button2.png,Button3.png,Button4.png,yellowcircle2.png,數目,z,0.0,,0.0,15.0,72664.0,0.0,,0.0,0.0,,,,,,,6.0,1.0,6.0,PracticeTrialProc,PracticeList,1.0,z,0.0,1.0,71046.0,0.0,z,1600.0,,,,,,,,,,,,,,,,,,,,,,,,,,,,,,,,,,,,,,
Wisconsin,1154,4,"<?xml version=""1.0""?>\n<Clock xmlns:dt=""urn:schemas-microsoft-com:datatypes""><Description dt:dt=""string"">E-Prime Primary Realtime Clock</Description><StartTime><Timestamp dt:dt=""int"">0</Timestamp><DateUtc dt:dt=""string"">2023-02-11T09:00:19Z</DateUtc></StartTime><FrequencyChanges><FrequencyChange><Frequency dt:dt=""r8"">2929853</Frequency><Timestamp dt:dt=""r8"">28685016228</Timestamp><Current dt:dt=""r8"">0</Current><DateUtc dt:dt=""string"">2023-02-11T09:00:19Z</DateUtc></FrequencyChange></FrequencyChanges></Clock>\n",Wisconsin-1154-4,59.957,1.0.0.563,1,-1379182243,2.0.10.356,2.0.10.356,02-11-2023,2/11/2023 9:00:19 AM,17:00:19,2.0.10.252,2,,,,2.0,1.0,1.0,BlockProc2,List3,1,,,,,,,,,,,,,,,,,,,,1.0,1.0,1.0,,,,ColorProc2,List4,,,,,,,,,1.0,BUTTON1.png,BUTTON2.PNG,BUTTON3.png,BUTTON4.png,bluecross1.png,,,,1.0,1.0,1.0,v,0.0,,,,,,,0.0,TrialProc,ColorList2,,,,,,,1.0,v,0.0,1.0,184862.0,0.0,v,1697.0,color
Wisconsin,1154,4,"<?xml version=""1.0""?>\n<Clock xmlns:dt=""urn:schemas-microsoft-com:datatypes""><Description dt:dt=""string"">E-Prime Primary Realtime Clock</Description><StartTime><Timestamp dt:dt=""int"">0</Timestamp><DateUtc dt:dt=""string"">2023-02-11T09:00:19Z</DateUtc></StartTime><FrequencyChanges><FrequencyChange><Frequency dt:dt=""r8"">2929853</Frequency><Timestamp dt:dt=""r8"">28685016228</Timestamp><Current dt:dt=""r8"">0</Current><DateUtc dt:dt=""string"">2023-02-11T09:00:19Z</DateUtc></FrequencyChange></FrequencyChanges></Clock>\n",Wisconsin-1154-4,59.957,1.0.0.563,1,-1379182243,2.0.10.356,2.0.10.356,02-11-2023,2/11/2023 9:00:19 AM,17:00:19,2.0.10.252,2,,,,2.0,1.0,1.0,BlockProc2,List3,1,,,,,,,,,,,,,,,,,,,,1.0,1.0,1.0,,,,ColorProc2,List4,,,,,,,,,2.0,BUTTON1.png,BUTTON2.PNG,BUTTON3.png,BUTTON4.png,greenstar4.png,,,,5.0,1.0,2.0,z,1.0,,,,,,,0.0,TrialProc,ColorList2,,,,,,,0.0,z,0.0,1.0,189099.0,0.0,x,1236.0,color
Wisconsin,1154,4,"<?xml version=""1.0""?>\n<Clock xmlns:dt=""urn:schemas-microsoft-com:datatypes""><Description dt:dt=""string"">E-Prime Primary Realtime Clock</Description><StartTime><Timestamp dt:dt=""int"">0</Timestamp><DateUtc dt:dt=""string"">2023-02-11T09:00:19Z</DateUtc></StartTime><FrequencyChanges><FrequencyChange><Frequency dt:dt=""r8"">2929853</Frequency><Timestamp dt:dt=""r8"">28685016228</Timestamp><Current dt:dt=""r8"">0</Current><DateUtc dt:dt=""string"">2023-02-11T09:00:19Z</DateUtc></FrequencyChange></FrequencyChanges></Clock>\n",Wisconsin-1154-4,59.957,1.0.0.563,1,-1379182243,2.0.10.356,2.0.10.356,02-11-2023,2/11/2023 9:00:19 AM,17:00:19,2.0.10.252,2,,,,2.0,1.0,1.0,BlockProc2,List3,1,,,,,,,,,,,,,,,,,,,,1.0,1.0,1.0,,,,ColorProc2,List4,,,,,,,,,3.0,BUTTON1.png,BUTTON2.PNG,BUTTON3.png,BUTTON4.png,Greencircle1.png,,,,3.0,1.0,3.0,z,0.0,,,,,,,0.0,TrialProc,ColorList2,,,,,,,1.0,z,0.0,1.0,192868.0,0.0,z,955.0,color
Wisconsin,1154,4,"<?xml version=""1.0""?>\n<Clock xmlns:dt=""urn:schemas-microsoft-com:datatypes""><Description dt:dt=""string"">E-Prime Primary Realtime Clock</Description><StartTime><Timestamp dt:dt=""int"">0</Timestamp><DateUtc dt:dt=""string"">2023-02-11T09:00:19Z</DateUtc></StartTime><FrequencyChanges><FrequencyChange><Frequency dt:dt=""r8"">2929853</Frequency><Timestamp dt:dt=""r8"">28685016228</Timestamp><Current dt:dt=""r8"">0</Current><DateUtc dt:dt=""string"">2023-02-11T09:00:19Z</DateUtc></FrequencyChange></FrequencyChanges></Clock>\n",Wisconsin-1154-4,59.957,1.0.0.563,1,-1379182243,2.0.10.356,2.0.10.356,02-11-2023,2/11/2023 9:00:19 AM,17:00:19,2.0.10.252,2,,,,2.0,1.0,1.0,BlockProc2,List3,1,,,,,,,,,,,,,,,,,,,,1.0,1.0,1.0,,,,ColorProc2,List4,,,,,,,,,4.0,BUTTON1.png,BUTTON2.PNG,BUTTON3.png,BUTTON4.png,greentriangle2.png,,,,6.0,1.0,4.0,z,1.0,,,,,,,0.0,TrialProc,ColorList2,,,,,,,0.0,z,0.0,1.0,196354.0,0.0,x,1516.0,color
Wisconsin,1154,4,"<?xml version=""1.0""?>\n<Clock xmlns:dt=""urn:schemas-microsoft-com:datatypes""><Description dt:dt=""string"">E-Prime Primary Realtime Clock</Description><StartTime><Timestamp dt:dt=""int"">0</Timestamp><DateUtc dt:dt=""string"">2023-02-11T09:00:19Z</DateUtc></StartTime><FrequencyChanges><FrequencyChange><Frequency dt:dt=""r8"">2929853</Frequency><Timestamp dt:dt=""r8"">28685016228</Timestamp><Current dt:dt=""r8"">0</Current><DateUtc dt:dt=""string"">2023-02-11T09:00:19Z</DateUtc></FrequencyChange></FrequencyChanges></Clock>\n",Wisconsin-1154-4,59.957,1.0.0.563,1,-1379182243,2.0.10.356,2.0.10.356,02-11-2023,2/11/2023 9:00:19 AM,17:00:19,2.0.10.252,2,,,,2.0,1.0,1.0,BlockProc2,List3,1,,,,,,,,,,,,,,,,,,,,1.0,1.0,1.0,,,,ColorProc2,List4,,,,,,,,,5.0,BUTTON1.png,BUTTON2.PNG,BUTTON3.png,BUTTON4.png,redstar4.png,,,,8.0,1.0,5.0,c,1.0,,,,,,,0.0,TrialProc,ColorList2,,,,,,,0.0,c,0.0,1.0,200407.0,0.0,x,1527.0,color
Wisconsin,1154,4,"<?xml version=""1.0""?>\n<Clock xmlns:dt=""urn:schemas-microsoft-com:datatypes""><Description dt:dt=""string"">E-Prime Primary Realtime Clock</Description><StartTime><Timestamp dt:dt=""int"">0</Timestamp><DateUtc dt:dt=""string"">2023-02-11T09:00:19Z</DateUtc></StartTime><FrequencyChanges><FrequencyChange><Frequency dt:dt=""r8"">2929853</Frequency><Timestamp dt:dt=""r8"">28685016228</Timestamp><Current dt:dt=""r8"">0</Current><DateUtc dt:dt=""string"">2023-02-11T09:00:19Z</DateUtc></FrequencyChange></FrequencyChanges></Clock>\n",Wisconsin-1154-4,59.957,1.0.0.563,1,-1379182243,2.0.10.356,2.0.10.356,02-11-2023,2/11/2023 9:00:19 AM,17:00:19,2.0.10.252,2,,,,2.0,1.0,1.0,BlockProc2,List3,1,,,,,,,,,,,,,,,,,,,,1.0,1.0,1.0,,,,ColorProc2,List4,,,,,,,,,6.0,BUTTON1.png,BUTTON2.PNG,BUTTON3.png,BUTTON4.png,yellowcircle2.png,,,,9.0,1.0,6.0,x,1.0,,,,,,,0.0,TrialProc,ColorList2,,,,,,,0.0,x,1.0,0.0,204476.0,0.0,z,1634.0,color
Wisconsin,1154,4,"<?xml version=""1.0""?>\n<Clock xmlns:dt=""urn:schemas-microsoft-com:datatypes""><Description dt:dt=""string"">E-Prime Primary Realtime Clock</Description><StartTime><Timestamp dt:dt=""int"">0</Timestamp><DateUtc dt:dt=""string"">2023-02-11T09:00:19Z</DateUtc></StartTime><FrequencyChanges><FrequencyChange><Frequency dt:dt=""r8"">2929853</Frequency><Timestamp dt:dt=""r8"">28685016228</Timestamp><Current dt:dt=""r8"">0</Current><DateUtc dt:dt=""string"">2023-02-11T09:00:19Z</DateUtc></FrequencyChange></FrequencyChanges></Clock>\n",Wisconsin-1154-4,59.957,1.0.0.563,1,-1379182243,2.0.10.356,2.0.10.356,02-11-2023,2/11/2023 9:00:19 AM,17:00:19,2.0.10.252,2,,,,2.0,1.0,1.0,BlockProc2,List3,1,,,,,,,,,,,,,,,,,,,,1.0,1.0,1.0,,,,ColorProc2,List4,,,,,,,,,7.0,BUTTON1.png,BUTTON2.PNG,BUTTON3.png,BUTTON4.png,Redcircle2.png,,,,7.0,1.0,7.0,c,0.0,,,,,,,0.0,TrialProc,ColorList2,,,,,,,1.0,c,0.0,1.0,208646.0,0.0,c,1160.0,color
Wisconsin,1154,4,"<?xml version=""1.0""?>\n<Clock xmlns:dt=""urn:schemas-microsoft-com:datatypes""><Description dt:dt=""string"">E-Prime Primary Realtime Clock</Description><StartTime><Timestamp dt:dt=""int"">0</Timestamp><DateUtc dt:dt=""string"">2023-02-11T09:00:19Z</DateUtc></StartTime><FrequencyChanges><FrequencyChange><Frequency dt:dt=""r8"">2929853</Frequency><Timestamp dt:dt=""r8"">28685016228</Timestamp><Current dt:dt=""r8"">0</Current><DateUtc dt:dt=""string"">2023-02-11T09:00:19Z</DateUtc></FrequencyChange></FrequencyChanges></Clock>\n",Wisconsin-1154-4,59.957,1.0.0.563,1,-1379182243,2.0.10.356,2.0.10.356,02-11-2023,2/11/2023 9:00:19 AM,17:00:19,2.0.10.252,2,,,,2.0,1.0,1.0,BlockProc2,List3,1,,,,,,,,,,,,,,,,,,,,1.0,1.0,1.0,,,,ColorProc2,List4,,,,,,,,,8.0,BUTTON1.png,BUTTON2.PNG,BUTTON3.png,BUTTON4.png,bluestar3.png,,,,2.0,1.0,8.0,v,0.0,,,,,,,0.0,TrialProc,ColorList2,,,,,,,1.0,v,0.0,1.0,212349.0,0.0,v,801.0,color
Wisconsin,1154,4,"<?xml version=""1.0""?>\n<Clock xmlns:dt=""urn:schemas-microsoft-com:datatypes""><Description dt:dt=""string"">E-Prime Primary Realtime Clock</Description><StartTime><Timestamp dt:dt=""int"">0</Timestamp><DateUtc dt:dt=""string"">2023-02-11T09:00:19Z</DateUtc></StartTime><FrequencyChanges><FrequencyChange><Frequency dt:dt=""r8"">2929853</Frequency><Timestamp dt:dt=""r8"">28685016228</Timestamp><Current dt:dt=""r8"">0</Current><DateUtc dt:dt=""string"">2023-02-11T09:00:19Z</DateUtc></FrequencyChange></FrequencyChanges></Clock>\n",Wisconsin-1154-4,59.957,1.0.0.563,1,-1379182243,2.0.10.356,2.0.10.356,02-11-2023,2/11/2023 9:00:19 AM,17:00:19,2.0.10.252,2,,,,2.0,1.0,1.0,BlockProc2,List3,1,,,,,,,,,,,,,,,,,,,,1.0,1.0,1.0,,,,ColorProc2,List4,,,,,,,,,9.0,BUTTON1.png,BUTTON2.PNG,BUTTON3.png,BUTTON4.png,greencross4.png,,,,4.0,1.0,9.0,z,0.0,,,,,,,0.0,TrialProc,ColorList2,,,,,,,1.0,z,0.0,1.0,215685.0,0.0,z,824.0,color
Wisconsin,1154,4,"<?xml version=""1.0""?>\n<Clock xmlns:dt=""urn:schemas-microsoft-com:datatypes""><Description dt:dt=""string"">E-Prime Primary Realtime Clock</Description><StartTime><Timestamp dt:dt=""int"">0</Timestamp><DateUtc dt:dt=""string"">2023-02-11T09:00:19Z</DateUtc></StartTime><FrequencyChanges><FrequencyChange><Frequency dt:dt=""r8"">2929853</Frequency><Timestamp dt:dt=""r8"">28685016228</Timestamp><Current dt:dt=""r8"">0</Current><DateUtc dt:dt=""string"">2023-02-11T09:00:19Z</DateUtc></FrequencyChange></FrequencyChanges></Clock>\n",Wisconsin-1154-4,59.957,1.0.0.563,1,-1379182243,2.0.10.356,2.0.10.356,02-11-2023,2/11/2023 9:00:19 AM,17:00:19,2.0.10.252,2,,,,2.0,1.0,1.0,BlockProc2,List3,1,,,,,,,,,,,,,,,,,,,,1.0,1.0,1.0,,,,ColorProc2,List4,,,,,,,,,10.0,BUTTON1.png,BUTTON2.PNG,BUTTON3.png,BUTTON4.png,yellowtriangle3.png,,,,10.0,1.0,10.0,x,0.0,,,,,,,0.0,TrialProc,ColorList2,,,,,,,1.0,x,0.0,1.0,219037.0,0.0,x,1648.0,color
Wisconsin,1154,4,"<?xml version=""1.0""?>\n<Clock xmlns:dt=""urn:schemas-microsoft-com:datatypes""><Description dt:dt=""string"">E-Prime Primary Realtime Clock</Description><StartTime><Timestamp dt:dt=""int"">0</Timestamp><DateUtc dt:dt=""string"">2023-02-11T09:00:19Z</DateUtc></StartTime><FrequencyChanges><FrequencyChange><Frequency dt:dt=""r8"">2929853</Frequency><Timestamp dt:dt=""r8"">28685016228</Timestamp><Current dt:dt=""r8"">0</Current><DateUtc dt:dt=""string"">2023-02-11T09:00:19Z</DateUtc></FrequencyChange></FrequencyChanges></Clock>\n",Wisconsin-1154-4,59.957,1.0.0.563,1,-1379182243,2.0.10.356,2.0.10.356,02-11-2023,2/11/2023 9:00:19 AM,17:00:19,2.0.10.252,2,,,,2.0,1.0,1.0,BlockProc2,List3,2,,,,,,,,,,,,,,,,,,,,3.0,1.0,2.0,,,,ShapeProc2,List4,,,,,,,,,1.0,Button1.png,Button2.png,Button3.png,Button4.png,Redstar3.png,,,,,,,v,1.0,,,,,,,0.0,TrialProc,ShapeList1,,,,6.0,1.0,1.0,0.0,v,0.0,0.0,223223.0,0.0,c,1414.0,Shape
Wisconsin,1154,4,"<?xml version=""1.0""?>\n<Clock xmlns:dt=""urn:schemas-microsoft-com:datatypes""><Description dt:dt=""string"">E-Prime Primary Realtime Clock</Description><StartTime><Timestamp dt:dt=""int"">0</Timestamp><DateUtc dt:dt=""string"">2023-02-11T09:00:19Z</DateUtc></StartTime><FrequencyChanges><FrequencyChange><Frequency dt:dt=""r8"">2929853</Frequency><Timestamp dt:dt=""r8"">28685016228</Timestamp><Current dt:dt=""r8"">0</Current><DateUtc dt:dt=""string"">2023-02-11T09:00:19Z</DateUtc></FrequencyChange></FrequencyChanges></Clock>\n",Wisconsin-1154-4,59.957,1.0.0.563,1,-1379182243,2.0.10.356,2.0.10.356,02-11-2023,2/11/2023 9:00:19 AM,17:00:19,2.0.10.252,2,,,,2.0,1.0,1.0,BlockProc2,List3,2,,,,,,,,,,,,,,,,,,,,3.0,1.0,2.0,,,,ShapeProc2,List4,,,,,,,,,2.0,Button1.png,Button2.png,Button3.png,Button4.png,Yellowtriangle1.png,,,,,,,x,0.0,,,,,,,0.0,TrialProc,ShapeList1,,,,10.0,1.0,2.0,1.0,x,0.0,0.0,227176.0,0.0,x,933.0,Shape
Wisconsin,1154,4,"<?xml version=""1.0""?>\n<Clock xmlns:dt=""urn:schemas-microsoft-com:datatypes""><Description dt:dt=""string"">E-Prime Primary Realtime Clock</Description><StartTime><Timestamp dt:dt=""int"">0</Timestamp><DateUtc dt:dt=""string"">2023-02-11T09:00:19Z</DateUtc></StartTime><FrequencyChanges><FrequencyChange><Frequency dt:dt=""r8"">2929853</Frequency><Timestamp dt:dt=""r8"">28685016228</Timestamp><Current dt:dt=""r8"">0</Current><DateUtc dt:dt=""string"">2023-02-11T09:00:19Z</DateUtc></FrequencyChange></FrequencyChanges></Clock>\n",Wisconsin-1154-4,59.957,1.0.0.563,1,-1379182243,2.0.10.356,2.0.10.356,02-11-2023,2/11/2023 9:00:19 AM,17:00:19,2.0.10.252,2,,,,2.0,1.0,1.0,BlockProc2,List3,2,,,,,,,,,,,,,,,,,,,,3.0,1.0,2.0,,,,ShapeProc2,List4,,,,,,,,,3.0,Button1.png,Button2.png,Button3.png,Button4.png,Bluetriangle2.png,,,,,,,x,1.0,,,,,,,0.0,TrialProc,ShapeList1,,,,2.0,1.0,3.0,0.0,x,1.0,0.0,230645.0,0.0,v,824.0,Shape
Wisconsin,1154,4,"<?xml version=""1.0""?>\n<Clock xmlns:dt=""urn:schemas-microsoft-com:datatypes""><Description dt:dt=""string"">E-Prime Primary Realtime Clock</Description><StartTime><Timestamp dt:dt=""int"">0</Timestamp><DateUtc dt:dt=""string"">2023-02-11T09:00:19Z</DateUtc></StartTime><FrequencyChanges><FrequencyChange><Frequency dt:dt=""r8"">2929853</Frequency><Timestamp dt:dt=""r8"">28685016228</Timestamp><Current dt:dt=""r8"">0</Current><DateUtc dt:dt=""string"">2023-02-11T09:00:19Z</DateUtc></FrequencyChange></FrequencyChanges></Clock>\n",Wisconsin-1154-4,59.957,1.0.0.563,1,-1379182243,2.0.10.356,2.0.10.356,02-11-2023,2/11/2023 9:00:19 AM,17:00:19,2.0.10.252,2,,,,2.0,1.0,1.0,BlockProc2,List3,2,,,,,,,,,,,,,,,,,,,,3.0,1.0,2.0,,,,ShapeProc2,List4,,,,,,,,,4.0,Button1.png,Button2.png,Button3.png,Button4.png,Bluecircle3.png,,,,,,,z,0.0,,,,,,,0.0,TrialProc,ShapeList1,,,,1.0,1.0,4.0,1.0,z,0.0,1.0,233998.0,0.0,z,1326.0,Shape
Wisconsin,1154,4,"<?xml version=""1.0""?>\n<Clock xmlns:dt=""urn:schemas-microsoft-com:datatypes""><Description dt:dt=""string"">E-Prime Primary Realtime Clock</Description><StartTime><Timestamp dt:dt=""int"">0</Timestamp><DateUtc dt:dt=""string"">2023-02-11T09:00:19Z</DateUtc></StartTime><FrequencyChanges><FrequencyChange><Frequency dt:dt=""r8"">2929853</Frequency><Timestamp dt:dt=""r8"">28685016228</Timestamp><Current dt:dt=""r8"">0</Current><DateUtc dt:dt=""string"">2023-02-11T09:00:19Z</DateUtc></FrequencyChange></FrequencyChanges></Clock>\n",Wisconsin-1154-4,59.957,1.0.0.563,1,-1379182243,2.0.10.356,2.0.10.356,02-11-2023,2/11/2023 9:00:19 AM,17:00:19,2.0.10.252,2,,,,2.0,1.0,1.0,BlockProc2,List3,2,,,,,,,,,,,,,,,,,,,,3.0,1.0,2.0,,,,ShapeProc2,List4,,,,,,,,,5.0,Button1.png,Button2.png,Button3.png,Button4.png,Redtriangle3.png,,,,,,,x,0.0,,,,,,,0.0,TrialProc,ShapeList1,,,,7.0,1.0,5.0,1.0,x,0.0,1.0,237851.0,0.0,x,2353.0,Shape
Wisconsin,1154,4,"<?xml version=""1.0""?>\n<Clock xmlns:dt=""urn:schemas-microsoft-com:datatypes""><Description dt:dt=""string"">E-Prime Primary Realtime Clock</Description><StartTime><Timestamp dt:dt=""int"">0</Timestamp><DateUtc dt:dt=""string"">2023-02-11T09:00:19Z</DateUtc></StartTime><FrequencyChanges><FrequencyChange><Frequency dt:dt=""r8"">2929853</Frequency><Timestamp dt:dt=""r8"">28685016228</Timestamp><Current dt:dt=""r8"">0</Current><DateUtc dt:dt=""string"">2023-02-11T09:00:19Z</DateUtc></FrequencyChange></FrequencyChanges></Clock>\n",Wisconsin-1154-4,59.957,1.0.0.563,1,-1379182243,2.0.10.356,2.0.10.356,02-11-2023,2/11/2023 9:00:19 AM,17:00:19,2.0.10.252,2,,,,2.0,1.0,1.0,BlockProc2,List3,2,,,,,,,,,,,,,,,,,,,,3.0,1.0,2.0,,,,ShapeProc2,List4,,,,,,,,,6.0,Button1.png,Button2.png,Button3.png,Button4.png,Yellowstar2.png,,,,,,,v,0.0,,,,,,,0.0,TrialProc,ShapeList1,,,,9.0,1.0,6.0,1.0,v,0.0,1.0,242738.0,0.0,v,2570.0,Shape
Wisconsin,1154,4,"<?xml version=""1.0""?>\n<Clock xmlns:dt=""urn:schemas-microsoft-com:datatypes""><Description dt:dt=""string"">E-Prime Primary Realtime Clock</Description><StartTime><Timestamp dt:dt=""int"">0</Timestamp><DateUtc dt:dt=""string"">2023-02-11T09:00:19Z</DateUtc></StartTime><FrequencyChanges><FrequencyChange><Frequency dt:dt=""r8"">2929853</Frequency><Timestamp dt:dt=""r8"">28685016228</Timestamp><Current dt:dt=""r8"">0</Current><DateUtc dt:dt=""string"">2023-02-11T09:00:19Z</DateUtc></FrequencyChange></FrequencyChanges></Clock>\n",Wisconsin-1154-4,59.957,1.0.0.563,1,-1379182243,2.0.10.356,2.0.10.356,02-11-2023,2/11/2023 9:00:19 AM,17:00:19,2.0.10.252,2,,,,2.0,1.0,1.0,BlockProc2,List3,2,,,,,,,,,,,,,,,,,,,,3.0,1.0,2.0,,,,ShapeProc2,List4,,,,,,,,,7.0,Button1.png,Button2.png,Button3.png,Button4.png,Redcross2.png,,,,,,,c,0.0,,,,,,,0.0,TrialProc,ShapeList1,,,,5.0,1.0,7.0,1.0,c,0.0,0.0,247841.0,0.0,c,2331.0,Shape
Wisconsin,1154,4,"<?xml version=""1.0""?>\n<Clock xmlns:dt=""urn:schemas-microsoft-com:datatypes""><Description dt:dt=""string"">E-Prime Primary Realtime Clock</Description><StartTime><Timestamp dt:dt=""int"">0</Timestamp><DateUtc dt:dt=""string"">2023-02-11T09:00:19Z</DateUtc></StartTime><FrequencyChanges><FrequencyChange><Frequency dt:dt=""r8"">2929853</Frequency><Timestamp dt:dt=""r8"">28685016228</Timestamp><Current dt:dt=""r8"">0</Current><DateUtc dt:dt=""string"">2023-02-11T09:00:19Z</DateUtc></FrequencyChange></FrequencyChanges></Clock>\n",Wisconsin-1154-4,59.957,1.0.0.563,1,-1379182243,2.0.10.356,2.0.10.356,02-11-2023,2/11/2023 9:00:19 AM,17:00:19,2.0.10.252,2,,,,2.0,1.0,1.0,BlockProc2,List3,2,,,,,,,,,,,,,,,,,,,,3.0,1.0,2.0,,,,ShapeProc2,List4,,,,,,,,,8.0,Button1.png,Button2.png,Button3.png,Button4.png,redcircle1.png,,,,,,,z,0.0,,,,,,,0.0,TrialProc,ShapeList1,,,,4.0,1.0,8.0,1.0,z,1.0,0.0,252711.0,0.0,z,1268.0,Shape
Wisconsin,1154,4,"<?xml version=""1.0""?>\n<Clock xmlns:dt=""urn:schemas-microsoft-com:datatypes""><Description dt:dt=""string"">E-Prime Primary Realtime Clock</Description><StartTime><Timestamp dt:dt=""int"">0</Timestamp><DateUtc dt:dt=""string"">2023-02-11T09:00:19Z</DateUtc></StartTime><FrequencyChanges><FrequencyChange><Frequency dt:dt=""r8"">2929853</Frequency><Timestamp dt:dt=""r8"">28685016228</Timestamp><Current dt:dt=""r8"">0</Current><DateUtc dt:dt=""string"">2023-02-11T09:00:19Z</DateUtc></FrequencyChange></FrequencyChanges></Clock>\n",Wisconsin-1154-4,59.957,1.0.0.563,1,-1379182243,2.0.10.356,2.0.10.356,02-11-2023,2/11/2023 9:00:19 AM,17:00:19,2.0.10.252,2,,,,2.0,1.0,1.0,BlockProc2,List3,2,,,,,,,,,,,,,,,,,,,,3.0,1.0,2.0,,,,ShapeProc2,List4,,,,,,,,,9.0,Button1.png,Button2.png,Button3.png,Button4.png,yellowcross4.png,,,,,,,c,0.0,,,,,,,0.0,TrialProc,ShapeList1,,,,8.0,1.0,9.0,1.0,c,0.0,1.0,256514.0,0.0,c,1913.0,Shape
Wisconsin,1154,4,"<?xml version=""1.0""?>\n<Clock xmlns:dt=""urn:schemas-microsoft-com:datatypes""><Description dt:dt=""string"">E-Prime Primary Realtime Clock</Description><StartTime><Timestamp dt:dt=""int"">0</Timestamp><DateUtc dt:dt=""string"">2023-02-11T09:00:19Z</DateUtc></StartTime><FrequencyChanges><FrequencyChange><Frequency dt:dt=""r8"">2929853</Frequency><Timestamp dt:dt=""r8"">28685016228</Timestamp><Current dt:dt=""r8"">0</Current><DateUtc dt:dt=""string"">2023-02-11T09:00:19Z</DateUtc></FrequencyChange></FrequencyChanges></Clock>\n",Wisconsin-1154-4,59.957,1.0.0.563,1,-1379182243,2.0.10.356,2.0.10.356,02-11-2023,2/11/2023 9:00:19 AM,17:00:19,2.0.10.252,2,,,,2.0,1.0,1.0,BlockProc2,List3,2,,,,,,,,,,,,,,,,,,,,3.0,1.0,2.0,,,,ShapeProc2,List4,,,,,,,,,10.0,Button1.png,Button2.png,Button3.png,Button4.png,Greenstar3.png,,,,,,,v,0.0,,,,,,,0.0,TrialProc,ShapeList1,,,,3.0,1.0,10.0,1.0,v,1.0,0.0,260967.0,0.0,v,2404.0,Shape
Wisconsin,1154,4,"<?xml version=""1.0""?>\n<Clock xmlns:dt=""urn:schemas-microsoft-com:datatypes""><Description dt:dt=""string"">E-Prime Primary Realtime Clock</Description><StartTime><Timestamp dt:dt=""int"">0</Timestamp><DateUtc dt:dt=""string"">2023-02-11T09:00:19Z</DateUtc></StartTime><FrequencyChanges><FrequencyChange><Frequency dt:dt=""r8"">2929853</Frequency><Timestamp dt:dt=""r8"">28685016228</Timestamp><Current dt:dt=""r8"">0</Current><DateUtc dt:dt=""string"">2023-02-11T09:00:19Z</DateUtc></FrequencyChange></FrequencyChanges></Clock>\n",Wisconsin-1154-4,59.957,1.0.0.563,1,-1379182243,2.0.10.356,2.0.10.356,02-11-2023,2/11/2023 9:00:19 AM,17:00:19,2.0.10.252,2,,,,2.0,1.0,1.0,BlockProc2,List3,3,,,,,,,,,,,,,,,,,,,,2.0,1.0,3.0,,,,NumberProc2,List4,,,,,,,,,1.0,Button1.png,Button2.png,Button3.png,Button4.png,Bluetriangle4.png,,,,,,,x,0.0,,,,3.0,1.0,1.0,0.0,TrialProc,NumberList1,,,,,,,1.0,x,0.0,0.0,265904.0,0.0,x,1355.0,number
Wisconsin,1154,4,"<?xml version=""1.0""?>\n<Clock xmlns:dt=""urn:schemas-microsoft-com:datatypes""><Description dt:dt=""string"">E-Prime Primary Realtime Clock</Description><StartTime><Timestamp dt:dt=""int"">0</Timestamp><DateUtc dt:dt=""string"">2023-02-11T09:00:19Z</DateUtc></StartTime><FrequencyChanges><FrequencyChange><Frequency dt:dt=""r8"">2929853</Frequency><Timestamp dt:dt=""r8"">28685016228</Timestamp><Current dt:dt=""r8"">0</Current><DateUtc dt:dt=""string"">2023-02-11T09:00:19Z</DateUtc></FrequencyChange></FrequencyChanges></Clock>\n",Wisconsin-1154-4,59.957,1.0.0.563,1,-1379182243,2.0.10.356,2.0.10.356,02-11-2023,2/11/2023 9:00:19 AM,17:00:19,2.0.10.252,2,,,,2.0,1.0,1.0,BlockProc2,List3,3,,,,,,,,,,,,,,,,,,,,2.0,1.0,3.0,,,,NumberProc2,List4,,,,,,,,,2.0,Button1.png,Button2.png,Button3.png,Button4.png,Redtriangle2.png,,,,,,,z,1.0,,,,7.0,1.0,2.0,0.0,TrialProc,NumberList1,,,,,,,0.0,z,0.0,1.0,269791.0,0.0,x,1339.0,number
Wisconsin,1154,4,"<?xml version=""1.0""?>\n<Clock xmlns:dt=""urn:schemas-microsoft-com:datatypes""><Description dt:dt=""string"">E-Prime Primary Realtime Clock</Description><StartTime><Timestamp dt:dt=""int"">0</Timestamp><DateUtc dt:dt=""string"">2023-02-11T09:00:19Z</DateUtc></StartTime><FrequencyChanges><FrequencyChange><Frequency dt:dt=""r8"">2929853</Frequency><Timestamp dt:dt=""r8"">28685016228</Timestamp><Current dt:dt=""r8"">0</Current><DateUtc dt:dt=""string"">2023-02-11T09:00:19Z</DateUtc></FrequencyChange></FrequencyChanges></Clock>\n",Wisconsin-1154-4,59.957,1.0.0.563,1,-1379182243,2.0.10.356,2.0.10.356,02-11-2023,2/11/2023 9:00:19 AM,17:00:19,2.0.10.252,2,,,,2.0,1.0,1.0,BlockProc2,List3,3,,,,,,,,,,,,,,,,,,,,2.0,1.0,3.0,,,,NumberProc2,List4,,,,,,,,,3.0,Button1.png,Button2.png,Button3.png,Button4.png,Greencross2.png,,,,,,,z,0.0,,,,4.0,1.0,3.0,0.0,TrialProc,NumberList1,,,,,,,1.0,z,0.0,1.0,273660.0,0.0,z,2638.0,number
Wisconsin,1154,4,"<?xml version=""1.0""?>\n<Clock xmlns:dt=""urn:schemas-microsoft-com:datatypes""><Description dt:dt=""string"">E-Prime Primary Realtime Clock</Description><StartTime><Timestamp dt:dt=""int"">0</Timestamp><DateUtc dt:dt=""string"">2023-02-11T09:00:19Z</DateUtc></StartTime><FrequencyChanges><FrequencyChange><Frequency dt:dt=""r8"">2929853</Frequency><Timestamp dt:dt=""r8"">28685016228</Timestamp><Current dt:dt=""r8"">0</Current><DateUtc dt:dt=""string"">2023-02-11T09:00:19Z</DateUtc></FrequencyChange></FrequencyChanges></Clock>\n",Wisconsin-1154-4,59.957,1.0.0.563,1,-1379182243,2.0.10.356,2.0.10.356,02-11-2023,2/11/2023 9:00:19 AM,17:00:19,2.0.10.252,2,,,,2.0,1.0,1.0,BlockProc2,List3,3,,,,,,,,,,,,,,,,,,,,2.0,1.0,3.0,,,,NumberProc2,List4,,,,,,,,,4.0,Button1.png,Button2.png,Button3.png,Button4.png,Greenstar1.png,,,,,,,v,0.0,,,,5.0,1.0,4.0,0.0,TrialProc,NumberList1,,,,,,,1.0,v,1.0,0.0,278830.0,0.0,v,2076.0,number
Wisconsin,1154,4,"<?xml version=""1.0""?>\n<Clock xmlns:dt=""urn:schemas-microsoft-com:datatypes""><Description dt:dt=""string"">E-Prime Primary Realtime Clock</Description><StartTime><Timestamp dt:dt=""int"">0</Timestamp><DateUtc dt:dt=""string"">2023-02-11T09:00:19Z</DateUtc></StartTime><FrequencyChanges><FrequencyChange><Frequency dt:dt=""r8"">2929853</Frequency><Timestamp dt:dt=""r8"">28685016228</Timestamp><Current dt:dt=""r8"">0</Current><DateUtc dt:dt=""string"">2023-02-11T09:00:19Z</DateUtc></FrequencyChange></FrequencyChanges></Clock>\n",Wisconsin-1154-4,59.957,1.0.0.563,1,-1379182243,2.0.10.356,2.0.10.356,02-11-2023,2/11/2023 9:00:19 AM,17:00:19,2.0.10.252,2,,,,2.0,1.0,1.0,BlockProc2,List3,3,,,,,,,,,,,,,,,,,,,,2.0,1.0,3.0,,,,NumberProc2,List4,,,,,,,,,5.0,Button1.png,Button2.png,Button3.png,Button4.png,Redstar1.png,,,,,,,v,0.0,,,,6.0,1.0,5.0,0.0,TrialProc,NumberList1,,,,,,,1.0,v,0.0,1.0,283434.0,0.0,v,2288.0,number
Wisconsin,1154,4,"<?xml version=""1.0""?>\n<Clock xmlns:dt=""urn:schemas-microsoft-com:datatypes""><Description dt:dt=""string"">E-Prime Primary Realtime Clock</Description><StartTime><Timestamp dt:dt=""int"">0</Timestamp><DateUtc dt:dt=""string"">2023-02-11T09:00:19Z</DateUtc></StartTime><FrequencyChanges><FrequencyChange><Frequency dt:dt=""r8"">2929853</Frequency><Timestamp dt:dt=""r8"">28685016228</Timestamp><Current dt:dt=""r8"">0</Current><DateUtc dt:dt=""string"">2023-02-11T09:00:19Z</DateUtc></FrequencyChange></FrequencyChanges></Clock>\n",Wisconsin-1154-4,59.957,1.0.0.563,1,-1379182243,2.0.10.356,2.0.10.356,02-11-2023,2/11/2023 9:00:19 AM,17:00:19,2.0.10.252,2,,,,2.0,1.0,1.0,BlockProc2,List3,3,,,,,,,,,,,,,,,,,,,,2.0,1.0,3.0,,,,NumberProc2,List4,,,,,,,,,6.0,Button1.png,Button2.png,Button3.png,Button4.png,Bluecross3.png,,,,,,,c,0.0,,,,1.0,1.0,6.0,0.0,TrialProc,NumberList1,,,,,,,1.0,c,0.0,1.0,288254.0,0.0,c,4507.0,number
Wisconsin,1154,4,"<?xml version=""1.0""?>\n<Clock xmlns:dt=""urn:schemas-microsoft-com:datatypes""><Description dt:dt=""string"">E-Prime Primary Realtime Clock</Description><StartTime><Timestamp dt:dt=""int"">0</Timestamp><DateUtc dt:dt=""string"">2023-02-11T09:00:19Z</DateUtc></StartTime><FrequencyChanges><FrequencyChange><Frequency dt:dt=""r8"">2929853</Frequency><Timestamp dt:dt=""r8"">28685016228</Timestamp><Current dt:dt=""r8"">0</Current><DateUtc dt:dt=""string"">2023-02-11T09:00:19Z</DateUtc></FrequencyChange></FrequencyChanges></Clock>\n",Wisconsin-1154-4,59.957,1.0.0.563,1,-1379182243,2.0.10.356,2.0.10.356,02-11-2023,2/11/2023 9:00:19 AM,17:00:19,2.0.10.252,2,,,,2.0,1.0,1.0,BlockProc2,List3,3,,,,,,,,,,,,,,,,,,,,2.0,1.0,3.0,,,,NumberProc2,List4,,,,,,,,,7.0,Button1.png,Button2.png,Button3.png,Button4.png,Yellowtriangle2.png,,,,,,,z,1.0,,,,10.0,1.0,7.0,0.0,TrialProc,NumberList1,,,,,,,0.0,z,0.0,0.0,295292.0,0.0,x,1773.0,number
Wisconsin,1154,4,"<?xml version=""1.0""?>\n<Clock xmlns:dt=""urn:schemas-microsoft-com:datatypes""><Description dt:dt=""string"">E-Prime Primary Realtime Clock</Description><StartTime><Timestamp dt:dt=""int"">0</Timestamp><DateUtc dt:dt=""string"">2023-02-11T09:00:19Z</DateUtc></StartTime><FrequencyChanges><FrequencyChange><Frequency dt:dt=""r8"">2929853</Frequency><Timestamp dt:dt=""r8"">28685016228</Timestamp><Current dt:dt=""r8"">0</Current><DateUtc dt:dt=""string"">2023-02-11T09:00:19Z</DateUtc></FrequencyChange></FrequencyChanges></Clock>\n",Wisconsin-1154-4,59.957,1.0.0.563,1,-1379182243,2.0.10.356,2.0.10.356,02-11-2023,2/11/2023 9:00:19 AM,17:00:19,2.0.10.252,2,,,,2.0,1.0,1.0,BlockProc2,List3,3,,,,,,,,,,,,,,,,,,,,2.0,1.0,3.0,,,,NumberProc2,List4,,,,,,,,,8.0,Button1.png,Button2.png,Button3.png,Button4.png,yellowcircle4.png,,,,,,,x,0.0,,,,8.0,1.0,8.0,0.0,TrialProc,NumberList1,,,,,,,1.0,x,0.0,1.0,299596.0,0.0,x,4332.0,number
Wisconsin,1154,4,"<?xml version=""1.0""?>\n<Clock xmlns:dt=""urn:schemas-microsoft-com:datatypes""><Description dt:dt=""string"">E-Prime Primary Realtime Clock</Description><StartTime><Timestamp dt:dt=""int"">0</Timestamp><DateUtc dt:dt=""string"">2023-02-11T09:00:19Z</DateUtc></StartTime><FrequencyChanges><FrequencyChange><Frequency dt:dt=""r8"">2929853</Frequency><Timestamp dt:dt=""r8"">28685016228</Timestamp><Current dt:dt=""r8"">0</Current><DateUtc dt:dt=""string"">2023-02-11T09:00:19Z</DateUtc></FrequencyChange></FrequencyChanges></Clock>\n",Wisconsin-1154-4,59.957,1.0.0.563,1,-1379182243,2.0.10.356,2.0.10.356,02-11-2023,2/11/2023 9:00:19 AM,17:00:19,2.0.10.252,2,,,,2.0,1.0,1.0,BlockProc2,List3,3,,,,,,,,,,,,,,,,,,,,2.0,1.0,3.0,,,,NumberProc2,List4,,,,,,,,,9.0,Button1.png,Button2.png,Button3.png,Button4.png,Yellowcross2.png,,,,,,,z,0.0,,,,9.0,1.0,9.0,0.0,TrialProc,NumberList1,,,,,,,1.0,z,0.0,1.0,306467.0,0.0,z,2245.0,number
Wisconsin,1154,4,"<?xml version=""1.0""?>\n<Clock xmlns:dt=""urn:schemas-microsoft-com:datatypes""><Description dt:dt=""string"">E-Prime Primary Realtime Clock</Description><StartTime><Timestamp dt:dt=""int"">0</Timestamp><DateUtc dt:dt=""string"">2023-02-11T09:00:19Z</DateUtc></StartTime><FrequencyChanges><FrequencyChange><Frequency dt:dt=""r8"">2929853</Frequency><Timestamp dt:dt=""r8"">28685016228</Timestamp><Current dt:dt=""r8"">0</Current><DateUtc dt:dt=""string"">2023-02-11T09:00:19Z</DateUtc></FrequencyChange></FrequencyChanges></Clock>\n",Wisconsin-1154-4,59.957,1.0.0.563,1,-1379182243,2.0.10.356,2.0.10.356,02-11-2023,2/11/2023 9:00:19 AM,17:00:19,2.0.10.252,2,,,,2.0,1.0,1.0,BlockProc2,List3,3,,,,,,,,,,,,,,,,,,,,2.0,1.0,3.0,,,,NumberProc2,List4,,,,,,,,,10.0,Button1.png,Button2.png,Button3.png,Button4.png,Bluestar4.png,,,,,,,x,1.0,,,,2.0,1.0,10.0,0.0,TrialProc,NumberList1,,,,,,,0.0,x,0.0,1.0,311254.0,0.0,v,2786.0,number
Wisconsin,1154,4,"<?xml version=""1.0""?>\n<Clock xmlns:dt=""urn:schemas-microsoft-com:datatypes""><Description dt:dt=""string"">E-Prime Primary Realtime Clock</Description><StartTime><Timestamp dt:dt=""int"">0</Timestamp><DateUtc dt:dt=""string"">2023-02-11T09:00:19Z</DateUtc></StartTime><FrequencyChanges><FrequencyChange><Frequency dt:dt=""r8"">2929853</Frequency><Timestamp dt:dt=""r8"">28685016228</Timestamp><Current dt:dt=""r8"">0</Current><DateUtc dt:dt=""string"">2023-02-11T09:00:19Z</DateUtc></FrequencyChange></FrequencyChanges></Clock>\n",Wisconsin-1154-4,59.957,1.0.0.563,1,-1379182243,2.0.10.356,2.0.10.356,02-11-2023,2/11/2023 9:00:19 AM,17:00:19,2.0.10.252,3,,,,1.0,1.0,2.0,BlockProc,List3,1,,,,,,,,,,,,,,,,,1.0,1.0,1.0,,,,,,,ColorProc,List2,,,,,,,,,1.0,BUTTON1.png,BUTTON2.PNG,BUTTON3.png,BUTTON4.png,yellowcircle1.png,9.0,1.0,1.0,,,,x,1.0,,,,,,,0.0,TrialProc,ColorList,,,,,,,0.0,x,0.0,1.0,316575.0,0.0,v,1385.0,color
Wisconsin,1154,4,"<?xml version=""1.0""?>\n<Clock xmlns:dt=""urn:schemas-microsoft-com:datatypes""><Description dt:dt=""string"">E-Prime Primary Realtime Clock</Description><StartTime><Timestamp dt:dt=""int"">0</Timestamp><DateUtc dt:dt=""string"">2023-02-11T09:00:19Z</DateUtc></StartTime><FrequencyChanges><FrequencyChange><Frequency dt:dt=""r8"">2929853</Frequency><Timestamp dt:dt=""r8"">28685016228</Timestamp><Current dt:dt=""r8"">0</Current><DateUtc dt:dt=""string"">2023-02-11T09:00:19Z</DateUtc></FrequencyChange></FrequencyChanges></Clock>\n",Wisconsin-1154-4,59.957,1.0.0.563,1,-1379182243,2.0.10.356,2.0.10.356,02-11-2023,2/11/2023 9:00:19 AM,17:00:19,2.0.10.252,3,,,,1.0,1.0,2.0,BlockProc,List3,1,,,,,,,,,,,,,,,,,1.0,1.0,1.0,,,,,,,ColorProc,List2,,,,,,,,,2.0,BUTTON1.png,BUTTON2.PNG,BUTTON3.png,BUTTON4.png,greentriangle1.png,6.0,1.0,2.0,,,,z,0.0,,,,,,,0.0,TrialProc,ColorList,,,,,,,1.0,z,0.0,1.0,320494.0,0.0,z,842.0,color
Wisconsin,1154,4,"<?xml version=""1.0""?>\n<Clock xmlns:dt=""urn:schemas-microsoft-com:datatypes""><Description dt:dt=""string"">E-Prime Primary Realtime Clock</Description><StartTime><Timestamp dt:dt=""int"">0</Timestamp><DateUtc dt:dt=""string"">2023-02-11T09:00:19Z</DateUtc></StartTime><FrequencyChanges><FrequencyChange><Frequency dt:dt=""r8"">2929853</Frequency><Timestamp dt:dt=""r8"">28685016228</Timestamp><Current dt:dt=""r8"">0</Current><DateUtc dt:dt=""string"">2023-02-11T09:00:19Z</DateUtc></FrequencyChange></FrequencyChanges></Clock>\n",Wisconsin-1154-4,59.957,1.0.0.563,1,-1379182243,2.0.10.356,2.0.10.356,02-11-2023,2/11/2023 9:00:19 AM,17:00:19,2.0.10.252,3,,,,1.0,1.0,2.0,BlockProc,List3,1,,,,,,,,,,,,,,,,,1.0,1.0,1.0,,,,,,,ColorProc,List2,,,,,,,,,3.0,BUTTON1.png,BUTTON2.PNG,BUTTON3.png,BUTTON4.png,bluecircle1.png,1.0,1.0,3.0,,,,v,0.0,,,,,,,0.0,TrialProc,ColorList,,,,,,,1.0,v,0.0,1.0,323863.0,0.0,v,1776.0,color
Wisconsin,1154,4,"<?xml version=""1.0""?>\n<Clock xmlns:dt=""urn:schemas-microsoft-com:datatypes""><Description dt:dt=""string"">E-Prime Primary Realtime Clock</Description><StartTime><Timestamp dt:dt=""int"">0</Timestamp><DateUtc dt:dt=""string"">2023-02-11T09:00:19Z</DateUtc></StartTime><FrequencyChanges><FrequencyChange><Frequency dt:dt=""r8"">2929853</Frequency><Timestamp dt:dt=""r8"">28685016228</Timestamp><Current dt:dt=""r8"">0</Current><DateUtc dt:dt=""string"">2023-02-11T09:00:19Z</DateUtc></FrequencyChange></FrequencyChanges></Clock>\n",Wisconsin-1154-4,59.957,1.0.0.563,1,-1379182243,2.0.10.356,2.0.10.356,02-11-2023,2/11/2023 9:00:19 AM,17:00:19,2.0.10.252,3,,,,1.0,1.0,2.0,BlockProc,List3,1,,,,,,,,,,,,,,,,,1.0,1.0,1.0,,,,,,,ColorProc,List2,,,,,,,,,4.0,BUTTON1.png,BUTTON2.PNG,BUTTON3.png,BUTTON4.png,greencircle3.png,4.0,1.0,4.0,,,,z,0.0,,,,,,,0.0,TrialProc,ColorList,,,,,,,1.0,z,0.0,1.0,328183.0,0.0,z,1248.0,color
Wisconsin,1154,4,"<?xml version=""1.0""?>\n<Clock xmlns:dt=""urn:schemas-microsoft-com:datatypes""><Description dt:dt=""string"">E-Prime Primary Realtime Clock</Description><StartTime><Timestamp dt:dt=""int"">0</Timestamp><DateUtc dt:dt=""string"">2023-02-11T09:00:19Z</DateUtc></StartTime><FrequencyChanges><FrequencyChange><Frequency dt:dt=""r8"">2929853</Frequency><Timestamp dt:dt=""r8"">28685016228</Timestamp><Current dt:dt=""r8"">0</Current><DateUtc dt:dt=""string"">2023-02-11T09:00:19Z</DateUtc></FrequencyChange></FrequencyChanges></Clock>\n",Wisconsin-1154-4,59.957,1.0.0.563,1,-1379182243,2.0.10.356,2.0.10.356,02-11-2023,2/11/2023 9:00:19 AM,17:00:19,2.0.10.252,3,,,,1.0,1.0,2.0,BlockProc,List3,1,,,,,,,,,,,,,,,,,1.0,1.0,1.0,,,,,,,ColorProc,List2,,,,,,,,,5.0,BUTTON1.png,BUTTON2.PNG,BUTTON3.png,BUTTON4.png,bluetriangle3.png,3.0,1.0,5.0,,,,v,0.0,,,,,,,0.0,TrialProc,ColorList,,,,,,,1.0,v,0.0,1.0,331969.0,0.0,v,1014.0,color
Wisconsin,1154,4,"<?xml version=""1.0""?>\n<Clock xmlns:dt=""urn:schemas-microsoft-com:datatypes""><Description dt:dt=""string"">E-Prime Primary Realtime Clock</Description><StartTime><Timestamp dt:dt=""int"">0</Timestamp><DateUtc dt:dt=""string"">2023-02-11T09:00:19Z</DateUtc></StartTime><FrequencyChanges><FrequencyChange><Frequency dt:dt=""r8"">2929853</Frequency><Timestamp dt:dt=""r8"">28685016228</Timestamp><Current dt:dt=""r8"">0</Current><DateUtc dt:dt=""string"">2023-02-11T09:00:19Z</DateUtc></FrequencyChange></FrequencyChanges></Clock>\n",Wisconsin-1154-4,59.957,1.0.0.563,1,-1379182243,2.0.10.356,2.0.10.356,02-11-2023,2/11/2023 9:00:19 AM,17:00:19,2.0.10.252,3,,,,1.0,1.0,2.0,BlockProc,List3,1,,,,,,,,,,,,,,,,,1.0,1.0,1.0,,,,,,,ColorProc,List2,,,,,,,,,6.0,BUTTON1.png,BUTTON2.PNG,BUTTON3.png,BUTTON4.png,greentriangle3.png,7.0,1.0,6.0,,,,z,0.0,,,,,,,0.0,TrialProc,ColorList,,,,,,,1.0,z,0.0,1.0,335522.0,0.0,z,837.0,color
Wisconsin,1154,4,"<?xml version=""1.0""?>\n<Clock xmlns:dt=""urn:schemas-microsoft-com:datatypes""><Description dt:dt=""string"">E-Prime Primary Realtime Clock</Description><StartTime><Timestamp dt:dt=""int"">0</Timestamp><DateUtc dt:dt=""string"">2023-02-11T09:00:19Z</DateUtc></StartTime><FrequencyChanges><FrequencyChange><Frequency dt:dt=""r8"">2929853</Frequency><Timestamp dt:dt=""r8"">28685016228</Timestamp><Current dt:dt=""r8"">0</Current><DateUtc dt:dt=""string"">2023-02-11T09:00:19Z</DateUtc></FrequencyChange></FrequencyChanges></Clock>\n",Wisconsin-1154-4,59.957,1.0.0.563,1,-1379182243,2.0.10.356,2.0.10.356,02-11-2023,2/11/2023 9:00:19 AM,17:00:19,2.0.10.252,3,,,,1.0,1.0,2.0,BlockProc,List3,1,,,,,,,,,,,,,,,,,1.0,1.0,1.0,,,,,,,ColorProc,List2,,,,,,,,,7.0,BUTTON1.png,BUTTON2.PNG,BUTTON3.png,BUTTON4.png,yellowstar3.png,10.0,1.0,7.0,,,,x,1.0,,,,,,,0.0,TrialProc,ColorList,,,,,,,0.0,x,0.0,1.0,338891.0,0.0,c,811.0,color
Wisconsin,1154,4,"<?xml version=""1.0""?>\n<Clock xmlns:dt=""urn:schemas-microsoft-com:datatypes""><Description dt:dt=""string"">E-Prime Primary Realtime Clock</Description><StartTime><Timestamp dt:dt=""int"">0</Timestamp><DateUtc dt:dt=""string"">2023-02-11T09:00:19Z</DateUtc></StartTime><FrequencyChanges><FrequencyChange><Frequency dt:dt=""r8"">2929853</Frequency><Timestamp dt:dt=""r8"">28685016228</Timestamp><Current dt:dt=""r8"">0</Current><DateUtc dt:dt=""string"">2023-02-11T09:00:19Z</DateUtc></FrequencyChange></FrequencyChanges></Clock>\n",Wisconsin-1154-4,59.957,1.0.0.563,1,-1379182243,2.0.10.356,2.0.10.356,02-11-2023,2/11/2023 9:00:19 AM,17:00:19,2.0.10.252,3,,,,1.0,1.0,2.0,BlockProc,List3,1,,,,,,,,,,,,,,,,,1.0,1.0,1.0,,,,,,,ColorProc,List2,,,,,,,,,8.0,BUTTON1.png,BUTTON2.PNG,BUTTON3.png,BUTTON4.png,bluecross2.png,2.0,1.0,8.0,,,,v,0.0,,,,,,,0.0,TrialProc,ColorList,,,,,,,1.0,v,0.0,1.0,342243.0,0.0,v,867.0,color
Wisconsin,1154,4,"<?xml version=""1.0""?>\n<Clock xmlns:dt=""urn:schemas-microsoft-com:datatypes""><Description dt:dt=""string"">E-Prime Primary Realtime Clock</Description><StartTime><Timestamp dt:dt=""int"">0</Timestamp><DateUtc dt:dt=""string"">2023-02-11T09:00:19Z</DateUtc></StartTime><FrequencyChanges><FrequencyChange><Frequency dt:dt=""r8"">2929853</Frequency><Timestamp dt:dt=""r8"">28685016228</Timestamp><Current dt:dt=""r8"">0</Current><DateUtc dt:dt=""string"">2023-02-11T09:00:19Z</DateUtc></FrequencyChange></FrequencyChanges></Clock>\n",Wisconsin-1154-4,59.957,1.0.0.563,1,-1379182243,2.0.10.356,2.0.10.356,02-11-2023,2/11/2023 9:00:19 AM,17:00:19,2.0.10.252,3,,,,1.0,1.0,2.0,BlockProc,List3,1,,,,,,,,,,,,,,,,,1.0,1.0,1.0,,,,,,,ColorProc,List2,,,,,,,,,9.0,BUTTON1.png,BUTTON2.PNG,BUTTON3.png,BUTTON4.png,greenstar2.png,5.0,1.0,9.0,,,,z,0.0,,,,,,,0.0,TrialProc,ColorList,,,,,,,1.0,z,0.0,1.0,345646.0,0.0,z,888.0,color
Wisconsin,1154,4,"<?xml version=""1.0""?>\n<Clock xmlns:dt=""urn:schemas-microsoft-com:datatypes""><Description dt:dt=""string"">E-Prime Primary Realtime Clock</Description><StartTime><Timestamp dt:dt=""int"">0</Timestamp><DateUtc dt:dt=""string"">2023-02-11T09:00:19Z</DateUtc></StartTime><FrequencyChanges><FrequencyChange><Frequency dt:dt=""r8"">2929853</Frequency><Timestamp dt:dt=""r8"">28685016228</Timestamp><Current dt:dt=""r8"">0</Current><DateUtc dt:dt=""string"">2023-02-11T09:00:19Z</DateUtc></FrequencyChange></FrequencyChanges></Clock>\n",Wisconsin-1154-4,59.957,1.0.0.563,1,-1379182243,2.0.10.356,2.0.10.356,02-11-2023,2/11/2023 9:00:19 AM,17:00:19,2.0.10.252,3,,,,1.0,1.0,2.0,BlockProc,List3,1,,,,,,,,,,,,,,,,,1.0,1.0,1.0,,,,,,,ColorProc,List2,,,,,,,,,10.0,BUTTON1.png,BUTTON2.PNG,BUTTON3.png,BUTTON4.png,redcircle3.png,8.0,1.0,10.0,,,,c,0.0,,,,,,,0.0,TrialProc,ColorList,,,,,,,1.0,c,0.0,1.0,349065.0,0.0,c,989.0,color
Wisconsin,1154,4,"<?xml version=""1.0""?>\n<Clock xmlns:dt=""urn:schemas-microsoft-com:datatypes""><Description dt:dt=""string"">E-Prime Primary Realtime Clock</Description><StartTime><Timestamp dt:dt=""int"">0</Timestamp><DateUtc dt:dt=""string"">2023-02-11T09:00:19Z</DateUtc></StartTime><FrequencyChanges><FrequencyChange><Frequency dt:dt=""r8"">2929853</Frequency><Timestamp dt:dt=""r8"">28685016228</Timestamp><Current dt:dt=""r8"">0</Current><DateUtc dt:dt=""string"">2023-02-11T09:00:19Z</DateUtc></FrequencyChange></FrequencyChanges></Clock>\n",Wisconsin-1154-4,59.957,1.0.0.563,1,-1379182243,2.0.10.356,2.0.10.356,02-11-2023,2/11/2023 9:00:19 AM,17:00:19,2.0.10.252,3,,,,1.0,1.0,2.0,BlockProc,List3,2,,,,,,,,,,,,,,,,,2.0,1.0,2.0,,,,,,,NumberProc,List2,,,,,,,,,1.0,Button1.png,Button2.png,Button3.png,Button4.png,Bluecircle4.png,,,,,,,x,0.0,1.0,1.0,1.0,,,,0.0,TrialProc,NumberList,,,,,,,1.0,x,0.0,1.0,352584.0,0.0,x,2206.0,number
Wisconsin,1154,4,"<?xml version=""1.0""?>\n<Clock xmlns:dt=""urn:schemas-microsoft-com:datatypes""><Description dt:dt=""string"">E-Prime Primary Realtime Clock</Description><StartTime><Timestamp dt:dt=""int"">0</Timestamp><DateUtc dt:dt=""string"">2023-02-11T09:00:19Z</DateUtc></StartTime><FrequencyChanges><FrequencyChange><Frequency dt:dt=""r8"">2929853</Frequency><Timestamp dt:dt=""r8"">28685016228</Timestamp><Current dt:dt=""r8"">0</Current><DateUtc dt:dt=""string"">2023-02-11T09:00:19Z</DateUtc></FrequencyChange></FrequencyChanges></Clock>\n",Wisconsin-1154-4,59.957,1.0.0.563,1,-1379182243,2.0.10.356,2.0.10.356,02-11-2023,2/11/2023 9:00:19 AM,17:00:19,2.0.10.252,3,,,,1.0,1.0,2.0,BlockProc,List3,2,,,,,,,,,,,,,,,,,2.0,1.0,2.0,,,,,,,NumberProc,List2,,,,,,,,,2.0,Button1.png,Button2.png,Button3.png,Button4.png,Yellowcross3.png,,,,,,,c,0.0,10.0,1.0,2.0,,,,0.0,TrialProc,NumberList,,,,,,,1.0,c,0.0,1.0,357321.0,0.0,c,1052.0,number
Wisconsin,1154,4,"<?xml version=""1.0""?>\n<Clock xmlns:dt=""urn:schemas-microsoft-com:datatypes""><Description dt:dt=""string"">E-Prime Primary Realtime Clock</Description><StartTime><Timestamp dt:dt=""int"">0</Timestamp><DateUtc dt:dt=""string"">2023-02-11T09:00:19Z</DateUtc></StartTime><FrequencyChanges><FrequencyChange><Frequency dt:dt=""r8"">2929853</Frequency><Timestamp dt:dt=""r8"">28685016228</Timestamp><Current dt:dt=""r8"">0</Current><DateUtc dt:dt=""string"">2023-02-11T09:00:19Z</DateUtc></FrequencyChange></FrequencyChanges></Clock>\n",Wisconsin-1154-4,59.957,1.0.0.563,1,-1379182243,2.0.10.356,2.0.10.356,02-11-2023,2/11/2023 9:00:19 AM,17:00:19,2.0.10.252,3,,,,1.0,1.0,2.0,BlockProc,List3,2,,,,,,,,,,,,,,,,,2.0,1.0,2.0,,,,,,,NumberProc,List2,,,,,,,,,3.0,Button1.png,Button2.png,Button3.png,Button4.png,Redtriangle4.png,,,,,,,x,0.0,8.0,1.0,3.0,,,,0.0,TrialProc,NumberList,,,,,,,1.0,x,0.0,1.0,360907.0,0.0,x,1418.0,number
Wisconsin,1154,4,"<?xml version=""1.0""?>\n<Clock xmlns:dt=""urn:schemas-microsoft-com:datatypes""><Description dt:dt=""string"">E-Prime Primary Realtime Clock</Description><StartTime><Timestamp dt:dt=""int"">0</Timestamp><DateUtc dt:dt=""string"">2023-02-11T09:00:19Z</DateUtc></StartTime><FrequencyChanges><FrequencyChange><Frequency dt:dt=""r8"">2929853</Frequency><Timestamp dt:dt=""r8"">28685016228</Timestamp><Current dt:dt=""r8"">0</Current><DateUtc dt:dt=""string"">2023-02-11T09:00:19Z</DateUtc></FrequencyChange></FrequencyChanges></Clock>\n",Wisconsin-1154-4,59.957,1.0.0.563,1,-1379182243,2.0.10.356,2.0.10.356,02-11-2023,2/11/2023 9:00:19 AM,17:00:19,2.0.10.252,3,,,,1.0,1.0,2.0,BlockProc,List3,2,,,,,,,,,,,,,,,,,2.0,1.0,2.0,,,,,,,NumberProc,List2,,,,,,,,,4.0,Button1.png,Button2.png,Button3.png,Button4.png,Bluetriangle1.png,,,,,,,v,0.0,3.0,1.0,4.0,,,,0.0,TrialProc,NumberList,,,,,,,1.0,v,0.0,1.0,364860.0,0.0,v,1033.0,number
Wisconsin,1154,4,"<?xml version=""1.0""?>\n<Clock xmlns:dt=""urn:schemas-microsoft-com:datatypes""><Description dt:dt=""string"">E-Prime Primary Realtime Clock</Description><StartTime><Timestamp dt:dt=""int"">0</Timestamp><DateUtc dt:dt=""string"">2023-02-11T09:00:19Z</DateUtc></StartTime><FrequencyChanges><FrequencyChange><Frequency dt:dt=""r8"">2929853</Frequency><Timestamp dt:dt=""r8"">28685016228</Timestamp><Current dt:dt=""r8"">0</Current><DateUtc dt:dt=""string"">2023-02-11T09:00:19Z</DateUtc></FrequencyChange></FrequencyChanges></Clock>\n",Wisconsin-1154-4,59.957,1.0.0.563,1,-1379182243,2.0.10.356,2.0.10.356,02-11-2023,2/11/2023 9:00:19 AM,17:00:19,2.0.10.252,3,,,,1.0,1.0,2.0,BlockProc,List3,2,,,,,,,,,,,,,,,,,2.0,1.0,2.0,,,,,,,NumberProc,List2,,,,,,,,,5.0,Button1.png,Button2.png,Button3.png,Button4.png,Bluestar2.png,,,,,,,z,0.0,2.0,1.0,5.0,,,,0.0,TrialProc,NumberList,,,,,,,1.0,z,0.0,1.0,368429.0,0.0,z,1384.0,number
Wisconsin,1154,4,"<?xml version=""1.0""?>\n<Clock xmlns:dt=""urn:schemas-microsoft-com:datatypes""><Description dt:dt=""string"">E-Prime Primary Realtime Clock</Description><StartTime><Timestamp dt:dt=""int"">0</Timestamp><DateUtc dt:dt=""string"">2023-02-11T09:00:19Z</DateUtc></StartTime><FrequencyChanges><FrequencyChange><Frequency dt:dt=""r8"">2929853</Frequency><Timestamp dt:dt=""r8"">28685016228</Timestamp><Current dt:dt=""r8"">0</Current><DateUtc dt:dt=""string"">2023-02-11T09:00:19Z</DateUtc></FrequencyChange></FrequencyChanges></Clock>\n",Wisconsin-1154-4,59.957,1.0.0.563,1,-1379182243,2.0.10.356,2.0.10.356,02-11-2023,2/11/2023 9:00:19 AM,17:00:19,2.0.10.252,3,,,,1.0,1.0,2.0,BlockProc,List3,2,,,,,,,,,,,,,,,,,2.0,1.0,2.0,,,,,,,NumberProc,List2,,,,,,,,,6.0,Button1.png,Button2.png,Button3.png,Button4.png,Greencircle4.png,,,,,,,x,0.0,4.0,1.0,6.0,,,,0.0,TrialProc,NumberList,,,,,,,1.0,x,0.0,0.0,372348.0,0.0,x,1113.0,number
Wisconsin,1154,4,"<?xml version=""1.0""?>\n<Clock xmlns:dt=""urn:schemas-microsoft-com:datatypes""><Description dt:dt=""string"">E-Prime Primary Realtime Clock</Description><StartTime><Timestamp dt:dt=""int"">0</Timestamp><DateUtc dt:dt=""string"">2023-02-11T09:00:19Z</DateUtc></StartTime><FrequencyChanges><FrequencyChange><Frequency dt:dt=""r8"">2929853</Frequency><Timestamp dt:dt=""r8"">28685016228</Timestamp><Current dt:dt=""r8"">0</Current><DateUtc dt:dt=""string"">2023-02-11T09:00:19Z</DateUtc></FrequencyChange></FrequencyChanges></Clock>\n",Wisconsin-1154-4,59.957,1.0.0.563,1,-1379182243,2.0.10.356,2.0.10.356,02-11-2023,2/11/2023 9:00:19 AM,17:00:19,2.0.10.252,3,,,,1.0,1.0,2.0,BlockProc,List3,2,,,,,,,,,,,,,,,,,2.0,1.0,2.0,,,,,,,NumberProc,List2,,,,,,,,,7.0,Button1.png,Button2.png,Button3.png,Button4.png,Redcircle4.png,,,,,,,x,0.0,6.0,1.0,7.0,,,,0.0,TrialProc,NumberList,,,,,,,1.0,x,0.0,1.0,376001.0,0.0,x,1027.0,number
Wisconsin,1154,4,"<?xml version=""1.0""?>\n<Clock xmlns:dt=""urn:schemas-microsoft-com:datatypes""><Description dt:dt=""string"">E-Prime Primary Realtime Clock</Description><StartTime><Timestamp dt:dt=""int"">0</Timestamp><DateUtc dt:dt=""string"">2023-02-11T09:00:19Z</DateUtc></StartTime><FrequencyChanges><FrequencyChange><Frequency dt:dt=""r8"">2929853</Frequency><Timestamp dt:dt=""r8"">28685016228</Timestamp><Current dt:dt=""r8"">0</Current><DateUtc dt:dt=""string"">2023-02-11T09:00:19Z</DateUtc></FrequencyChange></FrequencyChanges></Clock>\n",Wisconsin-1154-4,59.957,1.0.0.563,1,-1379182243,2.0.10.356,2.0.10.356,02-11-2023,2/11/2023 9:00:19 AM,17:00:19,2.0.10.252,3,,,,1.0,1.0,2.0,BlockProc,List3,2,,,,,,,,,,,,,,,,,2.0,1.0,2.0,,,,,,,NumberProc,List2,,,,,,,,,8.0,Button1.png,Button2.png,Button3.png,Button4.png,Yellowcross1.png,,,,,,,v,0.0,9.0,1.0,8.0,,,,0.0,TrialProc,NumberList,,,,,,,1.0,v,0.0,0.0,379570.0,0.0,v,1314.0,number
Wisconsin,1154,4,"<?xml version=""1.0""?>\n<Clock xmlns:dt=""urn:schemas-microsoft-com:datatypes""><Description dt:dt=""string"">E-Prime Primary Realtime Clock</Description><StartTime><Timestamp dt:dt=""int"">0</Timestamp><DateUtc dt:dt=""string"">2023-02-11T09:00:19Z</DateUtc></StartTime><FrequencyChanges><FrequencyChange><Frequency dt:dt=""r8"">2929853</Frequency><Timestamp dt:dt=""r8"">28685016228</Timestamp><Current dt:dt=""r8"">0</Current><DateUtc dt:dt=""string"">2023-02-11T09:00:19Z</DateUtc></FrequencyChange></FrequencyChanges></Clock>\n",Wisconsin-1154-4,59.957,1.0.0.563,1,-1379182243,2.0.10.356,2.0.10.356,02-11-2023,2/11/2023 9:00:19 AM,17:00:19,2.0.10.252,3,,,,1.0,1.0,2.0,BlockProc,List3,2,,,,,,,,,,,,,,,,,2.0,1.0,2.0,,,,,,,NumberProc,List2,,,,,,,,,9.0,Button1.png,Button2.png,Button3.png,Button4.png,Greencross3.png,,,,,,,c,0.0,5.0,1.0,9.0,,,,0.0,TrialProc,NumberList,,,,,,,1.0,c,0.0,1.0,383423.0,0.0,c,1301.0,number
Wisconsin,1154,4,"<?xml version=""1.0""?>\n<Clock xmlns:dt=""urn:schemas-microsoft-com:datatypes""><Description dt:dt=""string"">E-Prime Primary Realtime Clock</Description><StartTime><Timestamp dt:dt=""int"">0</Timestamp><DateUtc dt:dt=""string"">2023-02-11T09:00:19Z</DateUtc></StartTime><FrequencyChanges><FrequencyChange><Frequency dt:dt=""r8"">2929853</Frequency><Timestamp dt:dt=""r8"">28685016228</Timestamp><Current dt:dt=""r8"">0</Current><DateUtc dt:dt=""string"">2023-02-11T09:00:19Z</DateUtc></FrequencyChange></FrequencyChanges></Clock>\n",Wisconsin-1154-4,59.957,1.0.0.563,1,-1379182243,2.0.10.356,2.0.10.356,02-11-2023,2/11/2023 9:00:19 AM,17:00:19,2.0.10.252,3,,,,1.0,1.0,2.0,BlockProc,List3,2,,,,,,,,,,,,,,,,,2.0,1.0,2.0,,,,,,,NumberProc,List2,,,,,,,,,10.0,Button1.png,Button2.png,Button3.png,Button4.png,Redstar2.png,,,,,,,z,0.0,7.0,1.0,10.0,,,,0.0,TrialProc,NumberList,,,,,,,1.0,z,0.0,1.0,387259.0,0.0,z,1673.0,number
Wisconsin,1154,4,"<?xml version=""1.0""?>\n<Clock xmlns:dt=""urn:schemas-microsoft-com:datatypes""><Description dt:dt=""string"">E-Prime Primary Realtime Clock</Description><StartTime><Timestamp dt:dt=""int"">0</Timestamp><DateUtc dt:dt=""string"">2023-02-11T09:00:19Z</DateUtc></StartTime><FrequencyChanges><FrequencyChange><Frequency dt:dt=""r8"">2929853</Frequency><Timestamp dt:dt=""r8"">28685016228</Timestamp><Current dt:dt=""r8"">0</Current><DateUtc dt:dt=""string"">2023-02-11T09:00:19Z</DateUtc></FrequencyChange></FrequencyChanges></Clock>\n",Wisconsin-1154-4,59.957,1.0.0.563,1,-1379182243,2.0.10.356,2.0.10.356,02-11-2023,2/11/2023 9:00:19 AM,17:00:19,2.0.10.252,3,,,,1.0,1.0,2.0,BlockProc,List3,3,,,,,,,,,,,,,,,,,3.0,1.0,3.0,,,,,,,ShapeProc,List2,,,,,,,,,1.0,Button1.png,Button2.png,Button3.png,Button4.png,Redcross1.png,,,,,,,c,1.0,,,,,,,0.0,TrialProc,ShapeList,5.0,1.0,1.0,,,,0.0,c,0.0,0.0,391462.0,0.0,v,1549.0,Shape
Wisconsin,1154,4,"<?xml version=""1.0""?>\n<Clock xmlns:dt=""urn:schemas-microsoft-com:datatypes""><Description dt:dt=""string"">E-Prime Primary Realtime Clock</Description><StartTime><Timestamp dt:dt=""int"">0</Timestamp><DateUtc dt:dt=""string"">2023-02-11T09:00:19Z</DateUtc></StartTime><FrequencyChanges><FrequencyChange><Frequency dt:dt=""r8"">2929853</Frequency><Timestamp dt:dt=""r8"">28685016228</Timestamp><Current dt:dt=""r8"">0</Current><DateUtc dt:dt=""string"">2023-02-11T09:00:19Z</DateUtc></FrequencyChange></FrequencyChanges></Clock>\n",Wisconsin-1154-4,59.957,1.0.0.563,1,-1379182243,2.0.10.356,2.0.10.356,02-11-2023,2/11/2023 9:00:19 AM,17:00:19,2.0.10.252,3,,,,1.0,1.0,2.0,BlockProc,List3,3,,,,,,,,,,,,,,,,,3.0,1.0,3.0,,,,,,,ShapeProc,List2,,,,,,,,,2.0,Button1.png,Button2.png,Button3.png,Button4.png,yellowcircle3.png,,,,,,,z,1.0,,,,,,,0.0,TrialProc,ShapeList,8.0,1.0,2.0,,,,0.0,z,0.0,1.0,395549.0,0.0,x,1318.0,Shape
Wisconsin,1154,4,"<?xml version=""1.0""?>\n<Clock xmlns:dt=""urn:schemas-microsoft-com:datatypes""><Description dt:dt=""string"">E-Prime Primary Realtime Clock</Description><StartTime><Timestamp dt:dt=""int"">0</Timestamp><DateUtc dt:dt=""string"">2023-02-11T09:00:19Z</DateUtc></StartTime><FrequencyChanges><FrequencyChange><Frequency dt:dt=""r8"">2929853</Frequency><Timestamp dt:dt=""r8"">28685016228</Timestamp><Current dt:dt=""r8"">0</Current><DateUtc dt:dt=""string"">2023-02-11T09:00:19Z</DateUtc></FrequencyChange></FrequencyChanges></Clock>\n",Wisconsin-1154-4,59.957,1.0.0.563,1,-1379182243,2.0.10.356,2.0.10.356,02-11-2023,2/11/2023 9:00:19 AM,17:00:19,2.0.10.252,3,,,,1.0,1.0,2.0,BlockProc,List3,3,,,,,,,,,,,,,,,,,3.0,1.0,3.0,,,,,,,ShapeProc,List2,,,,,,,,,3.0,Button1.png,Button2.png,Button3.png,Button4.png,Bluecross4.png,,,,,,,c,0.0,,,,,,,0.0,TrialProc,ShapeList,2.0,1.0,3.0,,,,1.0,c,0.0,0.0,399401.0,0.0,c,1098.0,Shape
Wisconsin,1154,4,"<?xml version=""1.0""?>\n<Clock xmlns:dt=""urn:schemas-microsoft-com:datatypes""><Description dt:dt=""string"">E-Prime Primary Realtime Clock</Description><StartTime><Timestamp dt:dt=""int"">0</Timestamp><DateUtc dt:dt=""string"">2023-02-11T09:00:19Z</DateUtc></StartTime><FrequencyChanges><FrequencyChange><Frequency dt:dt=""r8"">2929853</Frequency><Timestamp dt:dt=""r8"">28685016228</Timestamp><Current dt:dt=""r8"">0</Current><DateUtc dt:dt=""string"">2023-02-11T09:00:19Z</DateUtc></FrequencyChange></FrequencyChanges></Clock>\n",Wisconsin-1154-4,59.957,1.0.0.563,1,-1379182243,2.0.10.356,2.0.10.356,02-11-2023,2/11/2023 9:00:19 AM,17:00:19,2.0.10.252,3,,,,1.0,1.0,2.0,BlockProc,List3,3,,,,,,,,,,,,,,,,,3.0,1.0,3.0,,,,,,,ShapeProc,List2,,,,,,,,,4.0,Button1.png,Button2.png,Button3.png,Button4.png,Yellowstar4.png,,,,,,,v,0.0,,,,,,,0.0,TrialProc,ShapeList,10.0,1.0,4.0,,,,1.0,v,0.0,0.0,403037.0,0.0,v,1894.0,Shape
Wisconsin,1154,4,"<?xml version=""1.0""?>\n<Clock xmlns:dt=""urn:schemas-microsoft-com:datatypes""><Description dt:dt=""string"">E-Prime Primary Realtime Clock</Description><StartTime><Timestamp dt:dt=""int"">0</Timestamp><DateUtc dt:dt=""string"">2023-02-11T09:00:19Z</DateUtc></StartTime><FrequencyChanges><FrequencyChange><Frequency dt:dt=""r8"">2929853</Frequency><Timestamp dt:dt=""r8"">28685016228</Timestamp><Current dt:dt=""r8"">0</Current><DateUtc dt:dt=""string"">2023-02-11T09:00:19Z</DateUtc></FrequencyChange></FrequencyChanges></Clock>\n",Wisconsin-1154-4,59.957,1.0.0.563,1,-1379182243,2.0.10.356,2.0.10.356,02-11-2023,2/11/2023 9:00:19 AM,17:00:19,2.0.10.252,3,,,,1.0,1.0,2.0,BlockProc,List3,3,,,,,,,,,,,,,,,,,3.0,1.0,3.0,,,,,,,ShapeProc,List2,,,,,,,,,5.0,Button1.png,Button2.png,Button3.png,Button4.png,Redcross4.png,,,,,,,c,0.0,,,,,,,0.0,TrialProc,ShapeList,6.0,1.0,5.0,,,,1.0,c,0.0,1.0,407457.0,0.0,c,1234.0,Shape
Wisconsin,1154,4,"<?xml version=""1.0""?>\n<Clock xmlns:dt=""urn:schemas-microsoft-com:datatypes""><Description dt:dt=""string"">E-Prime Primary Realtime Clock</Description><StartTime><Timestamp dt:dt=""int"">0</Timestamp><DateUtc dt:dt=""string"">2023-02-11T09:00:19Z</DateUtc></StartTime><FrequencyChanges><FrequencyChange><Frequency dt:dt=""r8"">2929853</Frequency><Timestamp dt:dt=""r8"">28685016228</Timestamp><Current dt:dt=""r8"">0</Current><DateUtc dt:dt=""string"">2023-02-11T09:00:19Z</DateUtc></FrequencyChange></FrequencyChanges></Clock>\n",Wisconsin-1154-4,59.957,1.0.0.563,1,-1379182243,2.0.10.356,2.0.10.356,02-11-2023,2/11/2023 9:00:19 AM,17:00:19,2.0.10.252,3,,,,1.0,1.0,2.0,BlockProc,List3,3,,,,,,,,,,,,,,,,,3.0,1.0,3.0,,,,,,,ShapeProc,List2,,,,,,,,,6.0,Button1.png,Button2.png,Button3.png,Button4.png,Greencross1.png,,,,,,,c,0.0,,,,,,,0.0,TrialProc,ShapeList,3.0,1.0,6.0,,,,1.0,c,0.0,1.0,411227.0,0.0,c,1559.0,Shape
Wisconsin,1154,4,"<?xml version=""1.0""?>\n<Clock xmlns:dt=""urn:schemas-microsoft-com:datatypes""><Description dt:dt=""string"">E-Prime Primary Realtime Clock</Description><StartTime><Timestamp dt:dt=""int"">0</Timestamp><DateUtc dt:dt=""string"">2023-02-11T09:00:19Z</DateUtc></StartTime><FrequencyChanges><FrequencyChange><Frequency dt:dt=""r8"">2929853</Frequency><Timestamp dt:dt=""r8"">28685016228</Timestamp><Current dt:dt=""r8"">0</Current><DateUtc dt:dt=""string"">2023-02-11T09:00:19Z</DateUtc></FrequencyChange></FrequencyChanges></Clock>\n",Wisconsin-1154-4,59.957,1.0.0.563,1,-1379182243,2.0.10.356,2.0.10.356,02-11-2023,2/11/2023 9:00:19 AM,17:00:19,2.0.10.252,3,,,,1.0,1.0,2.0,BlockProc,List3,3,,,,,,,,,,,,,,,,,3.0,1.0,3.0,,,,,,,ShapeProc,List2,,,,,,,,,7.0,Button1.png,Button2.png,Button3.png,Button4.png,Redtriangle1.png,,,,,,,x,0.0,,,,,,,0.0,TrialProc,ShapeList,7.0,1.0,7.0,,,,1.0,x,0.0,1.0,415330.0,0.0,x,1376.0,Shape
Wisconsin,1154,4,"<?xml version=""1.0""?>\n<Clock xmlns:dt=""urn:schemas-microsoft-com:datatypes""><Description dt:dt=""string"">E-Prime Primary Realtime Clock</Description><StartTime><Timestamp dt:dt=""int"">0</Timestamp><DateUtc dt:dt=""string"">2023-02-11T09:00:19Z</DateUtc></StartTime><FrequencyChanges><FrequencyChange><Frequency dt:dt=""r8"">2929853</Frequency><Timestamp dt:dt=""r8"">28685016228</Timestamp><Current dt:dt=""r8"">0</Current><DateUtc dt:dt=""string"">2023-02-11T09:00:19Z</DateUtc></FrequencyChange></FrequencyChanges></Clock>\n",Wisconsin-1154-4,59.957,1.0.0.563,1,-1379182243,2.0.10.356,2.0.10.356,02-11-2023,2/11/2023 9:00:19 AM,17:00:19,2.0.10.252,3,,,,1.0,1.0,2.0,BlockProc,List3,3,,,,,,,,,,,,,,,,,3.0,1.0,3.0,,,,,,,ShapeProc,List2,,,,,,,,,8.0,Button1.png,Button2.png,Button3.png,Button4.png,Yellowstar1.png,,,,,,,v,0.0,,,,,,,0.0,TrialProc,ShapeList,9.0,1.0,8.0,,,,1.0,v,0.0,1.0,419249.0,0.0,v,2033.0,Shape
Wisconsin,1154,4,"<?xml version=""1.0""?>\n<Clock xmlns:dt=""urn:schemas-microsoft-com:datatypes""><Description dt:dt=""string"">E-Prime Primary Realtime Clock</Description><StartTime><Timestamp dt:dt=""int"">0</Timestamp><DateUtc dt:dt=""string"">2023-02-11T09:00:19Z</DateUtc></StartTime><FrequencyChanges><FrequencyChange><Frequency dt:dt=""r8"">2929853</Frequency><Timestamp dt:dt=""r8"">28685016228</Timestamp><Current dt:dt=""r8"">0</Current><DateUtc dt:dt=""string"">2023-02-11T09:00:19Z</DateUtc></FrequencyChange></FrequencyChanges></Clock>\n",Wisconsin-1154-4,59.957,1.0.0.563,1,-1379182243,2.0.10.356,2.0.10.356,02-11-2023,2/11/2023 9:00:19 AM,17:00:19,2.0.10.252,3,,,,1.0,1.0,2.0,BlockProc,List3,3,,,,,,,,,,,,,,,,,3.0,1.0,3.0,,,,,,,ShapeProc,List2,,,,,,,,,9.0,Button1.png,Button2.png,Button3.png,Button4.png,Greentriangle4.png,,,,,,,x,0.0,,,,,,,0.0,TrialProc,ShapeList,4.0,1.0,9.0,,,,1.0,x,0.0,1.0,423819.0,0.0,x,4454.0,Shape
Wisconsin,1154,4,"<?xml version=""1.0""?>\n<Clock xmlns:dt=""urn:schemas-microsoft-com:datatypes""><Description dt:dt=""string"">E-Prime Primary Realtime Clock</Description><StartTime><Timestamp dt:dt=""int"">0</Timestamp><DateUtc dt:dt=""string"">2023-02-11T09:00:19Z</DateUtc></StartTime><FrequencyChanges><FrequencyChange><Frequency dt:dt=""r8"">2929853</Frequency><Timestamp dt:dt=""r8"">28685016228</Timestamp><Current dt:dt=""r8"">0</Current><DateUtc dt:dt=""string"">2023-02-11T09:00:19Z</DateUtc></FrequencyChange></FrequencyChanges></Clock>\n",Wisconsin-1154-4,59.957,1.0.0.563,1,-1379182243,2.0.10.356,2.0.10.356,02-11-2023,2/11/2023 9:00:19 AM,17:00:19,2.0.10.252,3,,,,1.0,1.0,2.0,BlockProc,List3,3,,,,,,,,,,,,,,,,,3.0,1.0,3.0,,,,,,,ShapeProc,List2,,,,,,,,,10.0,Button1.png,Button2.png,Button3.png,Button4.png,Bluecircle2.png,,,,,,,z,0.0,,,,,,,0.0,TrialProc,ShapeList,1.0,1.0,10.0,,,,1.0,z,0.0,1.0,430808.0,0.0,z,1273.0,Shape
