ExperimentName,Subject,Session,Clock.Information,DataFile.Basename,Display.RefreshRate,ExperimentVersion,Group,RandomSeed,RuntimeVersion,RuntimeVersionExpected,SessionDate,SessionStartDateTimeUtc,SessionTime,StudioVersion,Block,List1,List1.Cycle,List1.Sample,List3,List3.Cycle,List3.Sample,Procedure[Block],Running[Block],Trial,CardIMG1[Trial],CardIMG2[Trial],CardIMG3[Trial],CardIMG4[Trial],CardStim[Trial],Category,CorrectAnswer[Trial],FeedbackDisplay2.ACC,FeedbackDisplay2.CRESP,FeedbackDisplay2.DurationError,FeedbackDisplay2.OnsetDelay,FeedbackDisplay2.OnsetTime,FeedbackDisplay2.OnsetToOnsetTime,FeedbackDisplay2.RESP,FeedbackDisplay2.RT,FeedbackDisplay2.RTTime,List2,List2.Cycle,List2.Sample,List4,List4.Cycle,List4.Sample,PracticeList,PracticeList.Cycle,PracticeList.Sample,Procedure[Trial],Running[Trial],Slide5.ACC,Slide5.CRESP,Slide5.DurationError,Slide5.OnsetDelay,Slide5.OnsetTime,Slide5.OnsetToOnsetTime,Slide5.RESP,Slide5.RT,SubTrial,CardIMG1[SubTrial],CardIMG2[SubTrial],CardIMG3[SubTrial],CardIMG4[SubTrial],CardStim[SubTrial],ColorList,ColorList.Cycle,ColorList.Sample,ColorList2,ColorList2.Cycle,ColorList2.Sample,CorrectAnswer[SubTrial],NonPerseverativeError,NumberList,NumberList.Cycle,NumberList.Sample,NumberList1,NumberList1.Cycle,NumberList1.Sample,PerseverativeError,Procedure[SubTrial],Running[SubTrial],ShapeList,ShapeList.Cycle,ShapeList.Sample,ShapeList1,ShapeList1.Cycle,ShapeList1.Sample,Stimulus.ACC,Stimulus.CRESP,Stimulus.DurationError,Stimulus.OnsetDelay,Stimulus.OnsetTime,Stimulus.OnsetToOnsetTime,Stimulus.RESP,Stimulus.RT,TrialType
Wisconsin,1157,4,"<?xml version=""1.0""?>\n<Clock xmlns:dt=""urn:schemas-microsoft-com:datatypes""><Description dt:dt=""string"">E-Prime Primary Realtime Clock</Description><StartTime><Timestamp dt:dt=""int"">0</Timestamp><DateUtc dt:dt=""string"">2023-02-18T03:14:04Z</DateUtc></StartTime><FrequencyChanges><FrequencyChange><Frequency dt:dt=""r8"">2929931</Frequency><Timestamp dt:dt=""r8"">25396638564</Timestamp><Current dt:dt=""r8"">0</Current><DateUtc dt:dt=""string"">2023-02-18T03:14:04Z</DateUtc></FrequencyChange></FrequencyChanges></Clock>\n",Wisconsin-1157-4,59.958,1.0.0.565,1,-372609654,2.0.10.356,2.0.10.356,02-18-2023,2/18/2023 3:14:04 AM,11:14:04,2.0.10.252,1,1.0,1.0,1.0,,,,Practicebloc,List1,1,Button1.png,Button2.png,Button3.png,Button4.png,Greencircle3.png,顏色,z,0.0,,0.0,16.0,87949.0,0.0,,0.0,0.0,,,,,,,1.0,1.0,1.0,PracticeTrialProc,PracticeList,1.0,z,0.0,0.0,85897.0,0.0,z,2032.0,,,,,,,,,,,,,,,,,,,,,,,,,,,,,,,,,,,,,,
Wisconsin,1157,4,"<?xml version=""1.0""?>\n<Clock xmlns:dt=""urn:schemas-microsoft-com:datatypes""><Description dt:dt=""string"">E-Prime Primary Realtime Clock</Description><StartTime><Timestamp dt:dt=""int"">0</Timestamp><DateUtc dt:dt=""string"">2023-02-18T03:14:04Z</DateUtc></StartTime><FrequencyChanges><FrequencyChange><Frequency dt:dt=""r8"">2929931</Frequency><Timestamp dt:dt=""r8"">25396638564</Timestamp><Current dt:dt=""r8"">0</Current><DateUtc dt:dt=""string"">2023-02-18T03:14:04Z</DateUtc></FrequencyChange></FrequencyChanges></Clock>\n",Wisconsin-1157-4,59.958,1.0.0.565,1,-372609654,2.0.10.356,2.0.10.356,02-18-2023,2/18/2023 3:14:04 AM,11:14:04,2.0.10.252,1,1.0,1.0,1.0,,,,Practicebloc,List1,2,Button1.png,Button2.png,Button3.png,Button4.png,Redstar2.png,顏色,c,0.0,,0.0,12.0,92552.0,0.0,,0.0,0.0,,,,,,,2.0,1.0,2.0,PracticeTrialProc,PracticeList,1.0,c,0.0,1.0,90501.0,0.0,c,2036.0,,,,,,,,,,,,,,,,,,,,,,,,,,,,,,,,,,,,,,
Wisconsin,1157,4,"<?xml version=""1.0""?>\n<Clock xmlns:dt=""urn:schemas-microsoft-com:datatypes""><Description dt:dt=""string"">E-Prime Primary Realtime Clock</Description><StartTime><Timestamp dt:dt=""int"">0</Timestamp><DateUtc dt:dt=""string"">2023-02-18T03:14:04Z</DateUtc></StartTime><FrequencyChanges><FrequencyChange><Frequency dt:dt=""r8"">2929931</Frequency><Timestamp dt:dt=""r8"">25396638564</Timestamp><Current dt:dt=""r8"">0</Current><DateUtc dt:dt=""string"">2023-02-18T03:14:04Z</DateUtc></FrequencyChange></FrequencyChanges></Clock>\n",Wisconsin-1157-4,59.958,1.0.0.565,1,-372609654,2.0.10.356,2.0.10.356,02-18-2023,2/18/2023 3:14:04 AM,11:14:04,2.0.10.252,1,1.0,1.0,1.0,,,,Practicebloc,List1,3,Button1.png,Button2.png,Button3.png,Button4.png,Bluetriangle1.png,形狀,x,0.0,,0.0,11.0,96438.0,0.0,,0.0,0.0,,,,,,,3.0,1.0,3.0,PracticeTrialProc,PracticeList,1.0,x,0.0,1.0,95104.0,0.0,x,1320.0,,,,,,,,,,,,,,,,,,,,,,,,,,,,,,,,,,,,,,
Wisconsin,1157,4,"<?xml version=""1.0""?>\n<Clock xmlns:dt=""urn:schemas-microsoft-com:datatypes""><Description dt:dt=""string"">E-Prime Primary Realtime Clock</Description><StartTime><Timestamp dt:dt=""int"">0</Timestamp><DateUtc dt:dt=""string"">2023-02-18T03:14:04Z</DateUtc></StartTime><FrequencyChanges><FrequencyChange><Frequency dt:dt=""r8"">2929931</Frequency><Timestamp dt:dt=""r8"">25396638564</Timestamp><Current dt:dt=""r8"">0</Current><DateUtc dt:dt=""string"">2023-02-18T03:14:04Z</DateUtc></FrequencyChange></FrequencyChanges></Clock>\n",Wisconsin-1157-4,59.958,1.0.0.565,1,-372609654,2.0.10.356,2.0.10.356,02-18-2023,2/18/2023 3:14:04 AM,11:14:04,2.0.10.252,1,1.0,1.0,1.0,,,,Practicebloc,List1,4,Button1.png,Button2.png,Button3.png,Button4.png,greenstar2.png,形狀,v,0.0,,0.0,27.0,99991.0,0.0,,0.0,0.0,,,,,,,4.0,1.0,4.0,PracticeTrialProc,PracticeList,0.0,v,0.0,1.0,98990.0,0.0,x,970.0,,,,,,,,,,,,,,,,,,,,,,,,,,,,,,,,,,,,,,
Wisconsin,1157,4,"<?xml version=""1.0""?>\n<Clock xmlns:dt=""urn:schemas-microsoft-com:datatypes""><Description dt:dt=""string"">E-Prime Primary Realtime Clock</Description><StartTime><Timestamp dt:dt=""int"">0</Timestamp><DateUtc dt:dt=""string"">2023-02-18T03:14:04Z</DateUtc></StartTime><FrequencyChanges><FrequencyChange><Frequency dt:dt=""r8"">2929931</Frequency><Timestamp dt:dt=""r8"">25396638564</Timestamp><Current dt:dt=""r8"">0</Current><DateUtc dt:dt=""string"">2023-02-18T03:14:04Z</DateUtc></FrequencyChange></FrequencyChanges></Clock>\n",Wisconsin-1157-4,59.958,1.0.0.565,1,-372609654,2.0.10.356,2.0.10.356,02-18-2023,2/18/2023 3:14:04 AM,11:14:04,2.0.10.252,1,1.0,1.0,1.0,,,,Practicebloc,List1,5,Button1.png,Button2.png,Button3.png,Button4.png,BlueCross4.png,數目,x,0.0,,0.0,12.0,105511.0,0.0,,0.0,0.0,,,,,,,5.0,1.0,5.0,PracticeTrialProc,PracticeList,1.0,x,0.0,0.0,102542.0,0.0,x,2953.0,,,,,,,,,,,,,,,,,,,,,,,,,,,,,,,,,,,,,,
Wisconsin,1157,4,"<?xml version=""1.0""?>\n<Clock xmlns:dt=""urn:schemas-microsoft-com:datatypes""><Description dt:dt=""string"">E-Prime Primary Realtime Clock</Description><StartTime><Timestamp dt:dt=""int"">0</Timestamp><DateUtc dt:dt=""string"">2023-02-18T03:14:04Z</DateUtc></StartTime><FrequencyChanges><FrequencyChange><Frequency dt:dt=""r8"">2929931</Frequency><Timestamp dt:dt=""r8"">25396638564</Timestamp><Current dt:dt=""r8"">0</Current><DateUtc dt:dt=""string"">2023-02-18T03:14:04Z</DateUtc></FrequencyChange></FrequencyChanges></Clock>\n",Wisconsin-1157-4,59.958,1.0.0.565,1,-372609654,2.0.10.356,2.0.10.356,02-18-2023,2/18/2023 3:14:04 AM,11:14:04,2.0.10.252,1,1.0,1.0,1.0,,,,Practicebloc,List1,6,Button1.png,Button2.png,Button3.png,Button4.png,yellowcircle2.png,數目,z,0.0,,0.0,23.0,110098.0,0.0,,0.0,0.0,,,,,,,6.0,1.0,6.0,PracticeTrialProc,PracticeList,1.0,z,0.0,1.0,108063.0,0.0,z,2008.0,,,,,,,,,,,,,,,,,,,,,,,,,,,,,,,,,,,,,,
Wisconsin,1157,4,"<?xml version=""1.0""?>\n<Clock xmlns:dt=""urn:schemas-microsoft-com:datatypes""><Description dt:dt=""string"">E-Prime Primary Realtime Clock</Description><StartTime><Timestamp dt:dt=""int"">0</Timestamp><DateUtc dt:dt=""string"">2023-02-18T03:14:04Z</DateUtc></StartTime><FrequencyChanges><FrequencyChange><Frequency dt:dt=""r8"">2929931</Frequency><Timestamp dt:dt=""r8"">25396638564</Timestamp><Current dt:dt=""r8"">0</Current><DateUtc dt:dt=""string"">2023-02-18T03:14:04Z</DateUtc></FrequencyChange></FrequencyChanges></Clock>\n",Wisconsin-1157-4,59.958,1.0.0.565,1,-372609654,2.0.10.356,2.0.10.356,02-18-2023,2/18/2023 3:14:04 AM,11:14:04,2.0.10.252,2,,,,1.0,1.0,1.0,BlockProc,List3,1,,,,,,,,,,,,,,,,,2.0,1.0,1.0,,,,,,,NumberProc,List2,,,,,,,,,1.0,Button1.png,Button2.png,Button3.png,Button4.png,Yellowcross3.png,,,,,,,c,0.0,10.0,1.0,1.0,,,,0.0,TrialProc,NumberList,,,,,,,1.0,c,0.0,0.0,223310.0,0.0,c,3055.0,number
Wisconsin,1157,4,"<?xml version=""1.0""?>\n<Clock xmlns:dt=""urn:schemas-microsoft-com:datatypes""><Description dt:dt=""string"">E-Prime Primary Realtime Clock</Description><StartTime><Timestamp dt:dt=""int"">0</Timestamp><DateUtc dt:dt=""string"">2023-02-18T03:14:04Z</DateUtc></StartTime><FrequencyChanges><FrequencyChange><Frequency dt:dt=""r8"">2929931</Frequency><Timestamp dt:dt=""r8"">25396638564</Timestamp><Current dt:dt=""r8"">0</Current><DateUtc dt:dt=""string"">2023-02-18T03:14:04Z</DateUtc></FrequencyChange></FrequencyChanges></Clock>\n",Wisconsin-1157-4,59.958,1.0.0.565,1,-372609654,2.0.10.356,2.0.10.356,02-18-2023,2/18/2023 3:14:04 AM,11:14:04,2.0.10.252,2,,,,1.0,1.0,1.0,BlockProc,List3,1,,,,,,,,,,,,,,,,,2.0,1.0,1.0,,,,,,,NumberProc,List2,,,,,,,,,2.0,Button1.png,Button2.png,Button3.png,Button4.png,Bluetriangle1.png,,,,,,,v,0.0,3.0,1.0,2.0,,,,0.0,TrialProc,NumberList,,,,,,,1.0,v,1.0,0.0,228897.0,0.0,v,1836.0,number
Wisconsin,1157,4,"<?xml version=""1.0""?>\n<Clock xmlns:dt=""urn:schemas-microsoft-com:datatypes""><Description dt:dt=""string"">E-Prime Primary Realtime Clock</Description><StartTime><Timestamp dt:dt=""int"">0</Timestamp><DateUtc dt:dt=""string"">2023-02-18T03:14:04Z</DateUtc></StartTime><FrequencyChanges><FrequencyChange><Frequency dt:dt=""r8"">2929931</Frequency><Timestamp dt:dt=""r8"">25396638564</Timestamp><Current dt:dt=""r8"">0</Current><DateUtc dt:dt=""string"">2023-02-18T03:14:04Z</DateUtc></FrequencyChange></FrequencyChanges></Clock>\n",Wisconsin-1157-4,59.958,1.0.0.565,1,-372609654,2.0.10.356,2.0.10.356,02-18-2023,2/18/2023 3:14:04 AM,11:14:04,2.0.10.252,2,,,,1.0,1.0,1.0,BlockProc,List3,1,,,,,,,,,,,,,,,,,2.0,1.0,1.0,,,,,,,NumberProc,List2,,,,,,,,,3.0,Button1.png,Button2.png,Button3.png,Button4.png,Redcircle4.png,,,,,,,x,1.0,6.0,1.0,3.0,,,,0.0,TrialProc,NumberList,,,,,,,0.0,x,0.0,0.0,233267.0,0.0,c,2378.0,number
Wisconsin,1157,4,"<?xml version=""1.0""?>\n<Clock xmlns:dt=""urn:schemas-microsoft-com:datatypes""><Description dt:dt=""string"">E-Prime Primary Realtime Clock</Description><StartTime><Timestamp dt:dt=""int"">0</Timestamp><DateUtc dt:dt=""string"">2023-02-18T03:14:04Z</DateUtc></StartTime><FrequencyChanges><FrequencyChange><Frequency dt:dt=""r8"">2929931</Frequency><Timestamp dt:dt=""r8"">25396638564</Timestamp><Current dt:dt=""r8"">0</Current><DateUtc dt:dt=""string"">2023-02-18T03:14:04Z</DateUtc></FrequencyChange></FrequencyChanges></Clock>\n",Wisconsin-1157-4,59.958,1.0.0.565,1,-372609654,2.0.10.356,2.0.10.356,02-18-2023,2/18/2023 3:14:04 AM,11:14:04,2.0.10.252,2,,,,1.0,1.0,1.0,BlockProc,List3,1,,,,,,,,,,,,,,,,,2.0,1.0,1.0,,,,,,,NumberProc,List2,,,,,,,,,4.0,Button1.png,Button2.png,Button3.png,Button4.png,Bluestar2.png,,,,,,,z,1.0,2.0,1.0,4.0,,,,0.0,TrialProc,NumberList,,,,,,,0.0,z,0.0,0.0,238187.0,0.0,v,1793.0,number
Wisconsin,1157,4,"<?xml version=""1.0""?>\n<Clock xmlns:dt=""urn:schemas-microsoft-com:datatypes""><Description dt:dt=""string"">E-Prime Primary Realtime Clock</Description><StartTime><Timestamp dt:dt=""int"">0</Timestamp><DateUtc dt:dt=""string"">2023-02-18T03:14:04Z</DateUtc></StartTime><FrequencyChanges><FrequencyChange><Frequency dt:dt=""r8"">2929931</Frequency><Timestamp dt:dt=""r8"">25396638564</Timestamp><Current dt:dt=""r8"">0</Current><DateUtc dt:dt=""string"">2023-02-18T03:14:04Z</DateUtc></FrequencyChange></FrequencyChanges></Clock>\n",Wisconsin-1157-4,59.958,1.0.0.565,1,-372609654,2.0.10.356,2.0.10.356,02-18-2023,2/18/2023 3:14:04 AM,11:14:04,2.0.10.252,2,,,,1.0,1.0,1.0,BlockProc,List3,1,,,,,,,,,,,,,,,,,2.0,1.0,1.0,,,,,,,NumberProc,List2,,,,,,,,,5.0,Button1.png,Button2.png,Button3.png,Button4.png,Bluecircle4.png,,,,,,,x,0.0,1.0,1.0,5.0,,,,0.0,TrialProc,NumberList,,,,,,,1.0,x,0.0,1.0,242507.0,0.0,x,1457.0,number
Wisconsin,1157,4,"<?xml version=""1.0""?>\n<Clock xmlns:dt=""urn:schemas-microsoft-com:datatypes""><Description dt:dt=""string"">E-Prime Primary Realtime Clock</Description><StartTime><Timestamp dt:dt=""int"">0</Timestamp><DateUtc dt:dt=""string"">2023-02-18T03:14:04Z</DateUtc></StartTime><FrequencyChanges><FrequencyChange><Frequency dt:dt=""r8"">2929931</Frequency><Timestamp dt:dt=""r8"">25396638564</Timestamp><Current dt:dt=""r8"">0</Current><DateUtc dt:dt=""string"">2023-02-18T03:14:04Z</DateUtc></FrequencyChange></FrequencyChanges></Clock>\n",Wisconsin-1157-4,59.958,1.0.0.565,1,-372609654,2.0.10.356,2.0.10.356,02-18-2023,2/18/2023 3:14:04 AM,11:14:04,2.0.10.252,2,,,,1.0,1.0,1.0,BlockProc,List3,1,,,,,,,,,,,,,,,,,2.0,1.0,1.0,,,,,,,NumberProc,List2,,,,,,,,,6.0,Button1.png,Button2.png,Button3.png,Button4.png,Redstar2.png,,,,,,,z,0.0,7.0,1.0,6.0,,,,0.0,TrialProc,NumberList,,,,,,,1.0,z,0.0,1.0,246493.0,0.0,z,2063.0,number
Wisconsin,1157,4,"<?xml version=""1.0""?>\n<Clock xmlns:dt=""urn:schemas-microsoft-com:datatypes""><Description dt:dt=""string"">E-Prime Primary Realtime Clock</Description><StartTime><Timestamp dt:dt=""int"">0</Timestamp><DateUtc dt:dt=""string"">2023-02-18T03:14:04Z</DateUtc></StartTime><FrequencyChanges><FrequencyChange><Frequency dt:dt=""r8"">2929931</Frequency><Timestamp dt:dt=""r8"">25396638564</Timestamp><Current dt:dt=""r8"">0</Current><DateUtc dt:dt=""string"">2023-02-18T03:14:04Z</DateUtc></FrequencyChange></FrequencyChanges></Clock>\n",Wisconsin-1157-4,59.958,1.0.0.565,1,-372609654,2.0.10.356,2.0.10.356,02-18-2023,2/18/2023 3:14:04 AM,11:14:04,2.0.10.252,2,,,,1.0,1.0,1.0,BlockProc,List3,1,,,,,,,,,,,,,,,,,2.0,1.0,1.0,,,,,,,NumberProc,List2,,,,,,,,,7.0,Button1.png,Button2.png,Button3.png,Button4.png,Yellowcross1.png,,,,,,,v,0.0,9.0,1.0,7.0,,,,0.0,TrialProc,NumberList,,,,,,,1.0,v,0.0,0.0,251096.0,0.0,v,3075.0,number
Wisconsin,1157,4,"<?xml version=""1.0""?>\n<Clock xmlns:dt=""urn:schemas-microsoft-com:datatypes""><Description dt:dt=""string"">E-Prime Primary Realtime Clock</Description><StartTime><Timestamp dt:dt=""int"">0</Timestamp><DateUtc dt:dt=""string"">2023-02-18T03:14:04Z</DateUtc></StartTime><FrequencyChanges><FrequencyChange><Frequency dt:dt=""r8"">2929931</Frequency><Timestamp dt:dt=""r8"">25396638564</Timestamp><Current dt:dt=""r8"">0</Current><DateUtc dt:dt=""string"">2023-02-18T03:14:04Z</DateUtc></FrequencyChange></FrequencyChanges></Clock>\n",Wisconsin-1157-4,59.958,1.0.0.565,1,-372609654,2.0.10.356,2.0.10.356,02-18-2023,2/18/2023 3:14:04 AM,11:14:04,2.0.10.252,2,,,,1.0,1.0,1.0,BlockProc,List3,1,,,,,,,,,,,,,,,,,2.0,1.0,1.0,,,,,,,NumberProc,List2,,,,,,,,,8.0,Button1.png,Button2.png,Button3.png,Button4.png,Redtriangle4.png,,,,,,,x,0.0,8.0,1.0,8.0,,,,0.0,TrialProc,NumberList,,,,,,,1.0,x,0.0,0.0,256700.0,0.0,x,2463.0,number
Wisconsin,1157,4,"<?xml version=""1.0""?>\n<Clock xmlns:dt=""urn:schemas-microsoft-com:datatypes""><Description dt:dt=""string"">E-Prime Primary Realtime Clock</Description><StartTime><Timestamp dt:dt=""int"">0</Timestamp><DateUtc dt:dt=""string"">2023-02-18T03:14:04Z</DateUtc></StartTime><FrequencyChanges><FrequencyChange><Frequency dt:dt=""r8"">2929931</Frequency><Timestamp dt:dt=""r8"">25396638564</Timestamp><Current dt:dt=""r8"">0</Current><DateUtc dt:dt=""string"">2023-02-18T03:14:04Z</DateUtc></FrequencyChange></FrequencyChanges></Clock>\n",Wisconsin-1157-4,59.958,1.0.0.565,1,-372609654,2.0.10.356,2.0.10.356,02-18-2023,2/18/2023 3:14:04 AM,11:14:04,2.0.10.252,2,,,,1.0,1.0,1.0,BlockProc,List3,1,,,,,,,,,,,,,,,,,2.0,1.0,1.0,,,,,,,NumberProc,List2,,,,,,,,,9.0,Button1.png,Button2.png,Button3.png,Button4.png,Greencross3.png,,,,,,,c,0.0,5.0,1.0,9.0,,,,0.0,TrialProc,NumberList,,,,,,,1.0,c,0.0,1.0,261704.0,0.0,c,3186.0,number
Wisconsin,1157,4,"<?xml version=""1.0""?>\n<Clock xmlns:dt=""urn:schemas-microsoft-com:datatypes""><Description dt:dt=""string"">E-Prime Primary Realtime Clock</Description><StartTime><Timestamp dt:dt=""int"">0</Timestamp><DateUtc dt:dt=""string"">2023-02-18T03:14:04Z</DateUtc></StartTime><FrequencyChanges><FrequencyChange><Frequency dt:dt=""r8"">2929931</Frequency><Timestamp dt:dt=""r8"">25396638564</Timestamp><Current dt:dt=""r8"">0</Current><DateUtc dt:dt=""string"">2023-02-18T03:14:04Z</DateUtc></FrequencyChange></FrequencyChanges></Clock>\n",Wisconsin-1157-4,59.958,1.0.0.565,1,-372609654,2.0.10.356,2.0.10.356,02-18-2023,2/18/2023 3:14:04 AM,11:14:04,2.0.10.252,2,,,,1.0,1.0,1.0,BlockProc,List3,1,,,,,,,,,,,,,,,,,2.0,1.0,1.0,,,,,,,NumberProc,List2,,,,,,,,,10.0,Button1.png,Button2.png,Button3.png,Button4.png,Greencircle4.png,,,,,,,x,0.0,4.0,1.0,10.0,,,,0.0,TrialProc,NumberList,,,,,,,1.0,x,1.0,0.0,267424.0,0.0,x,1898.0,number
Wisconsin,1157,4,"<?xml version=""1.0""?>\n<Clock xmlns:dt=""urn:schemas-microsoft-com:datatypes""><Description dt:dt=""string"">E-Prime Primary Realtime Clock</Description><StartTime><Timestamp dt:dt=""int"">0</Timestamp><DateUtc dt:dt=""string"">2023-02-18T03:14:04Z</DateUtc></StartTime><FrequencyChanges><FrequencyChange><Frequency dt:dt=""r8"">2929931</Frequency><Timestamp dt:dt=""r8"">25396638564</Timestamp><Current dt:dt=""r8"">0</Current><DateUtc dt:dt=""string"">2023-02-18T03:14:04Z</DateUtc></FrequencyChange></FrequencyChanges></Clock>\n",Wisconsin-1157-4,59.958,1.0.0.565,1,-372609654,2.0.10.356,2.0.10.356,02-18-2023,2/18/2023 3:14:04 AM,11:14:04,2.0.10.252,2,,,,1.0,1.0,1.0,BlockProc,List3,2,,,,,,,,,,,,,,,,,3.0,1.0,2.0,,,,,,,ShapeProc,List2,,,,,,,,,1.0,Button1.png,Button2.png,Button3.png,Button4.png,Bluecircle2.png,,,,,,,z,0.0,,,,,,,0.0,TrialProc,ShapeList,1.0,1.0,1.0,,,,1.0,z,0.0,1.0,271861.0,0.0,z,1749.0,Shape
Wisconsin,1157,4,"<?xml version=""1.0""?>\n<Clock xmlns:dt=""urn:schemas-microsoft-com:datatypes""><Description dt:dt=""string"">E-Prime Primary Realtime Clock</Description><StartTime><Timestamp dt:dt=""int"">0</Timestamp><DateUtc dt:dt=""string"">2023-02-18T03:14:04Z</DateUtc></StartTime><FrequencyChanges><FrequencyChange><Frequency dt:dt=""r8"">2929931</Frequency><Timestamp dt:dt=""r8"">25396638564</Timestamp><Current dt:dt=""r8"">0</Current><DateUtc dt:dt=""string"">2023-02-18T03:14:04Z</DateUtc></FrequencyChange></FrequencyChanges></Clock>\n",Wisconsin-1157-4,59.958,1.0.0.565,1,-372609654,2.0.10.356,2.0.10.356,02-18-2023,2/18/2023 3:14:04 AM,11:14:04,2.0.10.252,2,,,,1.0,1.0,1.0,BlockProc,List3,2,,,,,,,,,,,,,,,,,3.0,1.0,2.0,,,,,,,ShapeProc,List2,,,,,,,,,2.0,Button1.png,Button2.png,Button3.png,Button4.png,Greencross1.png,,,,,,,c,1.0,,,,,,,0.0,TrialProc,ShapeList,3.0,1.0,2.0,,,,0.0,c,0.0,0.0,276147.0,0.0,v,2086.0,Shape
Wisconsin,1157,4,"<?xml version=""1.0""?>\n<Clock xmlns:dt=""urn:schemas-microsoft-com:datatypes""><Description dt:dt=""string"">E-Prime Primary Realtime Clock</Description><StartTime><Timestamp dt:dt=""int"">0</Timestamp><DateUtc dt:dt=""string"">2023-02-18T03:14:04Z</DateUtc></StartTime><FrequencyChanges><FrequencyChange><Frequency dt:dt=""r8"">2929931</Frequency><Timestamp dt:dt=""r8"">25396638564</Timestamp><Current dt:dt=""r8"">0</Current><DateUtc dt:dt=""string"">2023-02-18T03:14:04Z</DateUtc></FrequencyChange></FrequencyChanges></Clock>\n",Wisconsin-1157-4,59.958,1.0.0.565,1,-372609654,2.0.10.356,2.0.10.356,02-18-2023,2/18/2023 3:14:04 AM,11:14:04,2.0.10.252,2,,,,1.0,1.0,1.0,BlockProc,List3,2,,,,,,,,,,,,,,,,,3.0,1.0,2.0,,,,,,,ShapeProc,List2,,,,,,,,,3.0,Button1.png,Button2.png,Button3.png,Button4.png,Redcross1.png,,,,,,,c,0.0,,,,,,,0.0,TrialProc,ShapeList,5.0,1.0,3.0,,,,1.0,c,0.0,1.0,280767.0,0.0,c,1338.0,Shape
Wisconsin,1157,4,"<?xml version=""1.0""?>\n<Clock xmlns:dt=""urn:schemas-microsoft-com:datatypes""><Description dt:dt=""string"">E-Prime Primary Realtime Clock</Description><StartTime><Timestamp dt:dt=""int"">0</Timestamp><DateUtc dt:dt=""string"">2023-02-18T03:14:04Z</DateUtc></StartTime><FrequencyChanges><FrequencyChange><Frequency dt:dt=""r8"">2929931</Frequency><Timestamp dt:dt=""r8"">25396638564</Timestamp><Current dt:dt=""r8"">0</Current><DateUtc dt:dt=""string"">2023-02-18T03:14:04Z</DateUtc></FrequencyChange></FrequencyChanges></Clock>\n",Wisconsin-1157-4,59.958,1.0.0.565,1,-372609654,2.0.10.356,2.0.10.356,02-18-2023,2/18/2023 3:14:04 AM,11:14:04,2.0.10.252,2,,,,1.0,1.0,1.0,BlockProc,List3,2,,,,,,,,,,,,,,,,,3.0,1.0,2.0,,,,,,,ShapeProc,List2,,,,,,,,,4.0,Button1.png,Button2.png,Button3.png,Button4.png,Yellowstar1.png,,,,,,,v,0.0,,,,,,,0.0,TrialProc,ShapeList,9.0,1.0,4.0,,,,1.0,v,1.0,0.0,284636.0,0.0,v,3388.0,Shape
Wisconsin,1157,4,"<?xml version=""1.0""?>\n<Clock xmlns:dt=""urn:schemas-microsoft-com:datatypes""><Description dt:dt=""string"">E-Prime Primary Realtime Clock</Description><StartTime><Timestamp dt:dt=""int"">0</Timestamp><DateUtc dt:dt=""string"">2023-02-18T03:14:04Z</DateUtc></StartTime><FrequencyChanges><FrequencyChange><Frequency dt:dt=""r8"">2929931</Frequency><Timestamp dt:dt=""r8"">25396638564</Timestamp><Current dt:dt=""r8"">0</Current><DateUtc dt:dt=""string"">2023-02-18T03:14:04Z</DateUtc></FrequencyChange></FrequencyChanges></Clock>\n",Wisconsin-1157-4,59.958,1.0.0.565,1,-372609654,2.0.10.356,2.0.10.356,02-18-2023,2/18/2023 3:14:04 AM,11:14:04,2.0.10.252,2,,,,1.0,1.0,1.0,BlockProc,List3,2,,,,,,,,,,,,,,,,,3.0,1.0,2.0,,,,,,,ShapeProc,List2,,,,,,,,,5.0,Button1.png,Button2.png,Button3.png,Button4.png,Redtriangle1.png,,,,,,,x,1.0,,,,,,,0.0,TrialProc,ShapeList,7.0,1.0,5.0,,,,0.0,x,0.0,0.0,290557.0,0.0,v,3499.0,Shape
Wisconsin,1157,4,"<?xml version=""1.0""?>\n<Clock xmlns:dt=""urn:schemas-microsoft-com:datatypes""><Description dt:dt=""string"">E-Prime Primary Realtime Clock</Description><StartTime><Timestamp dt:dt=""int"">0</Timestamp><DateUtc dt:dt=""string"">2023-02-18T03:14:04Z</DateUtc></StartTime><FrequencyChanges><FrequencyChange><Frequency dt:dt=""r8"">2929931</Frequency><Timestamp dt:dt=""r8"">25396638564</Timestamp><Current dt:dt=""r8"">0</Current><DateUtc dt:dt=""string"">2023-02-18T03:14:04Z</DateUtc></FrequencyChange></FrequencyChanges></Clock>\n",Wisconsin-1157-4,59.958,1.0.0.565,1,-372609654,2.0.10.356,2.0.10.356,02-18-2023,2/18/2023 3:14:04 AM,11:14:04,2.0.10.252,2,,,,1.0,1.0,1.0,BlockProc,List3,2,,,,,,,,,,,,,,,,,3.0,1.0,2.0,,,,,,,ShapeProc,List2,,,,,,,,,6.0,Button1.png,Button2.png,Button3.png,Button4.png,Bluecross4.png,,,,,,,c,0.0,,,,,,,0.0,TrialProc,ShapeList,2.0,1.0,6.0,,,,1.0,c,0.0,1.0,296595.0,0.0,c,2148.0,Shape
Wisconsin,1157,4,"<?xml version=""1.0""?>\n<Clock xmlns:dt=""urn:schemas-microsoft-com:datatypes""><Description dt:dt=""string"">E-Prime Primary Realtime Clock</Description><StartTime><Timestamp dt:dt=""int"">0</Timestamp><DateUtc dt:dt=""string"">2023-02-18T03:14:04Z</DateUtc></StartTime><FrequencyChanges><FrequencyChange><Frequency dt:dt=""r8"">2929931</Frequency><Timestamp dt:dt=""r8"">25396638564</Timestamp><Current dt:dt=""r8"">0</Current><DateUtc dt:dt=""string"">2023-02-18T03:14:04Z</DateUtc></FrequencyChange></FrequencyChanges></Clock>\n",Wisconsin-1157-4,59.958,1.0.0.565,1,-372609654,2.0.10.356,2.0.10.356,02-18-2023,2/18/2023 3:14:04 AM,11:14:04,2.0.10.252,2,,,,1.0,1.0,1.0,BlockProc,List3,2,,,,,,,,,,,,,,,,,3.0,1.0,2.0,,,,,,,ShapeProc,List2,,,,,,,,,7.0,Button1.png,Button2.png,Button3.png,Button4.png,yellowcircle3.png,,,,,,,z,0.0,,,,,,,0.0,TrialProc,ShapeList,8.0,1.0,7.0,,,,1.0,z,1.0,0.0,301281.0,0.0,z,2406.0,Shape
Wisconsin,1157,4,"<?xml version=""1.0""?>\n<Clock xmlns:dt=""urn:schemas-microsoft-com:datatypes""><Description dt:dt=""string"">E-Prime Primary Realtime Clock</Description><StartTime><Timestamp dt:dt=""int"">0</Timestamp><DateUtc dt:dt=""string"">2023-02-18T03:14:04Z</DateUtc></StartTime><FrequencyChanges><FrequencyChange><Frequency dt:dt=""r8"">2929931</Frequency><Timestamp dt:dt=""r8"">25396638564</Timestamp><Current dt:dt=""r8"">0</Current><DateUtc dt:dt=""string"">2023-02-18T03:14:04Z</DateUtc></FrequencyChange></FrequencyChanges></Clock>\n",Wisconsin-1157-4,59.958,1.0.0.565,1,-372609654,2.0.10.356,2.0.10.356,02-18-2023,2/18/2023 3:14:04 AM,11:14:04,2.0.10.252,2,,,,1.0,1.0,1.0,BlockProc,List3,2,,,,,,,,,,,,,,,,,3.0,1.0,2.0,,,,,,,ShapeProc,List2,,,,,,,,,8.0,Button1.png,Button2.png,Button3.png,Button4.png,Greentriangle4.png,,,,,,,x,0.0,,,,,,,0.0,TrialProc,ShapeList,4.0,1.0,8.0,,,,1.0,x,0.0,0.0,306218.0,0.0,x,1789.0,Shape
Wisconsin,1157,4,"<?xml version=""1.0""?>\n<Clock xmlns:dt=""urn:schemas-microsoft-com:datatypes""><Description dt:dt=""string"">E-Prime Primary Realtime Clock</Description><StartTime><Timestamp dt:dt=""int"">0</Timestamp><DateUtc dt:dt=""string"">2023-02-18T03:14:04Z</DateUtc></StartTime><FrequencyChanges><FrequencyChange><Frequency dt:dt=""r8"">2929931</Frequency><Timestamp dt:dt=""r8"">25396638564</Timestamp><Current dt:dt=""r8"">0</Current><DateUtc dt:dt=""string"">2023-02-18T03:14:04Z</DateUtc></FrequencyChange></FrequencyChanges></Clock>\n",Wisconsin-1157-4,59.958,1.0.0.565,1,-372609654,2.0.10.356,2.0.10.356,02-18-2023,2/18/2023 3:14:04 AM,11:14:04,2.0.10.252,2,,,,1.0,1.0,1.0,BlockProc,List3,2,,,,,,,,,,,,,,,,,3.0,1.0,2.0,,,,,,,ShapeProc,List2,,,,,,,,,9.0,Button1.png,Button2.png,Button3.png,Button4.png,Yellowstar4.png,,,,,,,v,0.0,,,,,,,0.0,TrialProc,ShapeList,10.0,1.0,9.0,,,,1.0,v,0.0,1.0,310538.0,0.0,v,4092.0,Shape
Wisconsin,1157,4,"<?xml version=""1.0""?>\n<Clock xmlns:dt=""urn:schemas-microsoft-com:datatypes""><Description dt:dt=""string"">E-Prime Primary Realtime Clock</Description><StartTime><Timestamp dt:dt=""int"">0</Timestamp><DateUtc dt:dt=""string"">2023-02-18T03:14:04Z</DateUtc></StartTime><FrequencyChanges><FrequencyChange><Frequency dt:dt=""r8"">2929931</Frequency><Timestamp dt:dt=""r8"">25396638564</Timestamp><Current dt:dt=""r8"">0</Current><DateUtc dt:dt=""string"">2023-02-18T03:14:04Z</DateUtc></FrequencyChange></FrequencyChanges></Clock>\n",Wisconsin-1157-4,59.958,1.0.0.565,1,-372609654,2.0.10.356,2.0.10.356,02-18-2023,2/18/2023 3:14:04 AM,11:14:04,2.0.10.252,2,,,,1.0,1.0,1.0,BlockProc,List3,2,,,,,,,,,,,,,,,,,3.0,1.0,2.0,,,,,,,ShapeProc,List2,,,,,,,,,10.0,Button1.png,Button2.png,Button3.png,Button4.png,Redcross4.png,,,,,,,c,0.0,,,,,,,0.0,TrialProc,ShapeList,6.0,1.0,10.0,,,,1.0,c,0.0,1.0,317176.0,0.0,c,2750.0,Shape
Wisconsin,1157,4,"<?xml version=""1.0""?>\n<Clock xmlns:dt=""urn:schemas-microsoft-com:datatypes""><Description dt:dt=""string"">E-Prime Primary Realtime Clock</Description><StartTime><Timestamp dt:dt=""int"">0</Timestamp><DateUtc dt:dt=""string"">2023-02-18T03:14:04Z</DateUtc></StartTime><FrequencyChanges><FrequencyChange><Frequency dt:dt=""r8"">2929931</Frequency><Timestamp dt:dt=""r8"">25396638564</Timestamp><Current dt:dt=""r8"">0</Current><DateUtc dt:dt=""string"">2023-02-18T03:14:04Z</DateUtc></FrequencyChange></FrequencyChanges></Clock>\n",Wisconsin-1157-4,59.958,1.0.0.565,1,-372609654,2.0.10.356,2.0.10.356,02-18-2023,2/18/2023 3:14:04 AM,11:14:04,2.0.10.252,2,,,,1.0,1.0,1.0,BlockProc,List3,3,,,,,,,,,,,,,,,,,1.0,1.0,3.0,,,,,,,ColorProc,List2,,,,,,,,,1.0,BUTTON1.png,BUTTON2.PNG,BUTTON3.png,BUTTON4.png,redcircle3.png,8.0,1.0,1.0,,,,c,1.0,,,,,,,0.0,TrialProc,ColorList,,,,,,,0.0,c,0.0,1.0,322463.0,0.0,z,4134.0,color
Wisconsin,1157,4,"<?xml version=""1.0""?>\n<Clock xmlns:dt=""urn:schemas-microsoft-com:datatypes""><Description dt:dt=""string"">E-Prime Primary Realtime Clock</Description><StartTime><Timestamp dt:dt=""int"">0</Timestamp><DateUtc dt:dt=""string"">2023-02-18T03:14:04Z</DateUtc></StartTime><FrequencyChanges><FrequencyChange><Frequency dt:dt=""r8"">2929931</Frequency><Timestamp dt:dt=""r8"">25396638564</Timestamp><Current dt:dt=""r8"">0</Current><DateUtc dt:dt=""string"">2023-02-18T03:14:04Z</DateUtc></FrequencyChange></FrequencyChanges></Clock>\n",Wisconsin-1157-4,59.958,1.0.0.565,1,-372609654,2.0.10.356,2.0.10.356,02-18-2023,2/18/2023 3:14:04 AM,11:14:04,2.0.10.252,2,,,,1.0,1.0,1.0,BlockProc,List3,3,,,,,,,,,,,,,,,,,1.0,1.0,3.0,,,,,,,ColorProc,List2,,,,,,,,,2.0,BUTTON1.png,BUTTON2.PNG,BUTTON3.png,BUTTON4.png,bluecircle1.png,1.0,1.0,2.0,,,,v,0.0,,,,,,,0.0,TrialProc,ColorList,,,,,,,1.0,v,1.0,0.0,329134.0,0.0,v,1111.0,color
Wisconsin,1157,4,"<?xml version=""1.0""?>\n<Clock xmlns:dt=""urn:schemas-microsoft-com:datatypes""><Description dt:dt=""string"">E-Prime Primary Realtime Clock</Description><StartTime><Timestamp dt:dt=""int"">0</Timestamp><DateUtc dt:dt=""string"">2023-02-18T03:14:04Z</DateUtc></StartTime><FrequencyChanges><FrequencyChange><Frequency dt:dt=""r8"">2929931</Frequency><Timestamp dt:dt=""r8"">25396638564</Timestamp><Current dt:dt=""r8"">0</Current><DateUtc dt:dt=""string"">2023-02-18T03:14:04Z</DateUtc></FrequencyChange></FrequencyChanges></Clock>\n",Wisconsin-1157-4,59.958,1.0.0.565,1,-372609654,2.0.10.356,2.0.10.356,02-18-2023,2/18/2023 3:14:04 AM,11:14:04,2.0.10.252,2,,,,1.0,1.0,1.0,BlockProc,List3,3,,,,,,,,,,,,,,,,,1.0,1.0,3.0,,,,,,,ColorProc,List2,,,,,,,,,3.0,BUTTON1.png,BUTTON2.PNG,BUTTON3.png,BUTTON4.png,greentriangle3.png,7.0,1.0,3.0,,,,z,1.0,,,,,,,0.0,TrialProc,ColorList,,,,,,,0.0,z,0.0,1.0,332787.0,0.0,c,1105.0,color
Wisconsin,1157,4,"<?xml version=""1.0""?>\n<Clock xmlns:dt=""urn:schemas-microsoft-com:datatypes""><Description dt:dt=""string"">E-Prime Primary Realtime Clock</Description><StartTime><Timestamp dt:dt=""int"">0</Timestamp><DateUtc dt:dt=""string"">2023-02-18T03:14:04Z</DateUtc></StartTime><FrequencyChanges><FrequencyChange><Frequency dt:dt=""r8"">2929931</Frequency><Timestamp dt:dt=""r8"">25396638564</Timestamp><Current dt:dt=""r8"">0</Current><DateUtc dt:dt=""string"">2023-02-18T03:14:04Z</DateUtc></FrequencyChange></FrequencyChanges></Clock>\n",Wisconsin-1157-4,59.958,1.0.0.565,1,-372609654,2.0.10.356,2.0.10.356,02-18-2023,2/18/2023 3:14:04 AM,11:14:04,2.0.10.252,2,,,,1.0,1.0,1.0,BlockProc,List3,3,,,,,,,,,,,,,,,,,1.0,1.0,3.0,,,,,,,ColorProc,List2,,,,,,,,,4.0,BUTTON1.png,BUTTON2.PNG,BUTTON3.png,BUTTON4.png,greenstar2.png,5.0,1.0,4.0,,,,z,1.0,,,,,,,0.0,TrialProc,ColorList,,,,,,,0.0,z,0.0,1.0,336423.0,0.0,v,1709.0,color
Wisconsin,1157,4,"<?xml version=""1.0""?>\n<Clock xmlns:dt=""urn:schemas-microsoft-com:datatypes""><Description dt:dt=""string"">E-Prime Primary Realtime Clock</Description><StartTime><Timestamp dt:dt=""int"">0</Timestamp><DateUtc dt:dt=""string"">2023-02-18T03:14:04Z</DateUtc></StartTime><FrequencyChanges><FrequencyChange><Frequency dt:dt=""r8"">2929931</Frequency><Timestamp dt:dt=""r8"">25396638564</Timestamp><Current dt:dt=""r8"">0</Current><DateUtc dt:dt=""string"">2023-02-18T03:14:04Z</DateUtc></FrequencyChange></FrequencyChanges></Clock>\n",Wisconsin-1157-4,59.958,1.0.0.565,1,-372609654,2.0.10.356,2.0.10.356,02-18-2023,2/18/2023 3:14:04 AM,11:14:04,2.0.10.252,2,,,,1.0,1.0,1.0,BlockProc,List3,3,,,,,,,,,,,,,,,,,1.0,1.0,3.0,,,,,,,ColorProc,List2,,,,,,,,,5.0,BUTTON1.png,BUTTON2.PNG,BUTTON3.png,BUTTON4.png,bluecross2.png,2.0,1.0,5.0,,,,v,0.0,,,,,,,0.0,TrialProc,ColorList,,,,,,,1.0,v,0.0,1.0,340676.0,0.0,v,1888.0,color
Wisconsin,1157,4,"<?xml version=""1.0""?>\n<Clock xmlns:dt=""urn:schemas-microsoft-com:datatypes""><Description dt:dt=""string"">E-Prime Primary Realtime Clock</Description><StartTime><Timestamp dt:dt=""int"">0</Timestamp><DateUtc dt:dt=""string"">2023-02-18T03:14:04Z</DateUtc></StartTime><FrequencyChanges><FrequencyChange><Frequency dt:dt=""r8"">2929931</Frequency><Timestamp dt:dt=""r8"">25396638564</Timestamp><Current dt:dt=""r8"">0</Current><DateUtc dt:dt=""string"">2023-02-18T03:14:04Z</DateUtc></FrequencyChange></FrequencyChanges></Clock>\n",Wisconsin-1157-4,59.958,1.0.0.565,1,-372609654,2.0.10.356,2.0.10.356,02-18-2023,2/18/2023 3:14:04 AM,11:14:04,2.0.10.252,2,,,,1.0,1.0,1.0,BlockProc,List3,3,,,,,,,,,,,,,,,,,1.0,1.0,3.0,,,,,,,ColorProc,List2,,,,,,,,,6.0,BUTTON1.png,BUTTON2.PNG,BUTTON3.png,BUTTON4.png,greentriangle1.png,6.0,1.0,6.0,,,,z,0.0,,,,,,,0.0,TrialProc,ColorList,,,,,,,1.0,z,1.0,0.0,345095.0,0.0,z,2444.0,color
Wisconsin,1157,4,"<?xml version=""1.0""?>\n<Clock xmlns:dt=""urn:schemas-microsoft-com:datatypes""><Description dt:dt=""string"">E-Prime Primary Realtime Clock</Description><StartTime><Timestamp dt:dt=""int"">0</Timestamp><DateUtc dt:dt=""string"">2023-02-18T03:14:04Z</DateUtc></StartTime><FrequencyChanges><FrequencyChange><Frequency dt:dt=""r8"">2929931</Frequency><Timestamp dt:dt=""r8"">25396638564</Timestamp><Current dt:dt=""r8"">0</Current><DateUtc dt:dt=""string"">2023-02-18T03:14:04Z</DateUtc></FrequencyChange></FrequencyChanges></Clock>\n",Wisconsin-1157-4,59.958,1.0.0.565,1,-372609654,2.0.10.356,2.0.10.356,02-18-2023,2/18/2023 3:14:04 AM,11:14:04,2.0.10.252,2,,,,1.0,1.0,1.0,BlockProc,List3,3,,,,,,,,,,,,,,,,,1.0,1.0,3.0,,,,,,,ColorProc,List2,,,,,,,,,7.0,BUTTON1.png,BUTTON2.PNG,BUTTON3.png,BUTTON4.png,yellowcircle1.png,9.0,1.0,7.0,,,,x,1.0,,,,,,,0.0,TrialProc,ColorList,,,,,,,0.0,x,0.0,0.0,350082.0,0.0,z,2977.0,color
Wisconsin,1157,4,"<?xml version=""1.0""?>\n<Clock xmlns:dt=""urn:schemas-microsoft-com:datatypes""><Description dt:dt=""string"">E-Prime Primary Realtime Clock</Description><StartTime><Timestamp dt:dt=""int"">0</Timestamp><DateUtc dt:dt=""string"">2023-02-18T03:14:04Z</DateUtc></StartTime><FrequencyChanges><FrequencyChange><Frequency dt:dt=""r8"">2929931</Frequency><Timestamp dt:dt=""r8"">25396638564</Timestamp><Current dt:dt=""r8"">0</Current><DateUtc dt:dt=""string"">2023-02-18T03:14:04Z</DateUtc></FrequencyChange></FrequencyChanges></Clock>\n",Wisconsin-1157-4,59.958,1.0.0.565,1,-372609654,2.0.10.356,2.0.10.356,02-18-2023,2/18/2023 3:14:04 AM,11:14:04,2.0.10.252,2,,,,1.0,1.0,1.0,BlockProc,List3,3,,,,,,,,,,,,,,,,,1.0,1.0,3.0,,,,,,,ColorProc,List2,,,,,,,,,8.0,BUTTON1.png,BUTTON2.PNG,BUTTON3.png,BUTTON4.png,bluetriangle3.png,3.0,1.0,8.0,,,,v,1.0,,,,,,,0.0,TrialProc,ColorList,,,,,,,0.0,v,0.0,1.0,355603.0,0.0,c,3071.0,color
Wisconsin,1157,4,"<?xml version=""1.0""?>\n<Clock xmlns:dt=""urn:schemas-microsoft-com:datatypes""><Description dt:dt=""string"">E-Prime Primary Realtime Clock</Description><StartTime><Timestamp dt:dt=""int"">0</Timestamp><DateUtc dt:dt=""string"">2023-02-18T03:14:04Z</DateUtc></StartTime><FrequencyChanges><FrequencyChange><Frequency dt:dt=""r8"">2929931</Frequency><Timestamp dt:dt=""r8"">25396638564</Timestamp><Current dt:dt=""r8"">0</Current><DateUtc dt:dt=""string"">2023-02-18T03:14:04Z</DateUtc></FrequencyChange></FrequencyChanges></Clock>\n",Wisconsin-1157-4,59.958,1.0.0.565,1,-372609654,2.0.10.356,2.0.10.356,02-18-2023,2/18/2023 3:14:04 AM,11:14:04,2.0.10.252,2,,,,1.0,1.0,1.0,BlockProc,List3,3,,,,,,,,,,,,,,,,,1.0,1.0,3.0,,,,,,,ColorProc,List2,,,,,,,,,9.0,BUTTON1.png,BUTTON2.PNG,BUTTON3.png,BUTTON4.png,greencircle3.png,4.0,1.0,9.0,,,,z,0.0,,,,,,,0.0,TrialProc,ColorList,,,,,,,1.0,z,0.0,1.0,361207.0,0.0,z,1963.0,color
Wisconsin,1157,4,"<?xml version=""1.0""?>\n<Clock xmlns:dt=""urn:schemas-microsoft-com:datatypes""><Description dt:dt=""string"">E-Prime Primary Realtime Clock</Description><StartTime><Timestamp dt:dt=""int"">0</Timestamp><DateUtc dt:dt=""string"">2023-02-18T03:14:04Z</DateUtc></StartTime><FrequencyChanges><FrequencyChange><Frequency dt:dt=""r8"">2929931</Frequency><Timestamp dt:dt=""r8"">25396638564</Timestamp><Current dt:dt=""r8"">0</Current><DateUtc dt:dt=""string"">2023-02-18T03:14:04Z</DateUtc></FrequencyChange></FrequencyChanges></Clock>\n",Wisconsin-1157-4,59.958,1.0.0.565,1,-372609654,2.0.10.356,2.0.10.356,02-18-2023,2/18/2023 3:14:04 AM,11:14:04,2.0.10.252,2,,,,1.0,1.0,1.0,BlockProc,List3,3,,,,,,,,,,,,,,,,,1.0,1.0,3.0,,,,,,,ColorProc,List2,,,,,,,,,10.0,BUTTON1.png,BUTTON2.PNG,BUTTON3.png,BUTTON4.png,yellowstar3.png,10.0,1.0,10.0,,,,x,0.0,,,,,,,0.0,TrialProc,ColorList,,,,,,,1.0,x,0.0,1.0,365710.0,0.0,x,1636.0,color
Wisconsin,1157,4,"<?xml version=""1.0""?>\n<Clock xmlns:dt=""urn:schemas-microsoft-com:datatypes""><Description dt:dt=""string"">E-Prime Primary Realtime Clock</Description><StartTime><Timestamp dt:dt=""int"">0</Timestamp><DateUtc dt:dt=""string"">2023-02-18T03:14:04Z</DateUtc></StartTime><FrequencyChanges><FrequencyChange><Frequency dt:dt=""r8"">2929931</Frequency><Timestamp dt:dt=""r8"">25396638564</Timestamp><Current dt:dt=""r8"">0</Current><DateUtc dt:dt=""string"">2023-02-18T03:14:04Z</DateUtc></FrequencyChange></FrequencyChanges></Clock>\n",Wisconsin-1157-4,59.958,1.0.0.565,1,-372609654,2.0.10.356,2.0.10.356,02-18-2023,2/18/2023 3:14:04 AM,11:14:04,2.0.10.252,3,,,,2.0,1.0,2.0,BlockProc2,List3,1,,,,,,,,,,,,,,,,,,,,3.0,1.0,1.0,,,,ShapeProc2,List4,,,,,,,,,1.0,Button1.png,Button2.png,Button3.png,Button4.png,Greenstar3.png,,,,,,,v,1.0,,,,,,,0.0,TrialProc,ShapeList1,,,,3.0,1.0,1.0,0.0,v,1.0,0.0,369879.0,0.0,z,1690.0,Shape
Wisconsin,1157,4,"<?xml version=""1.0""?>\n<Clock xmlns:dt=""urn:schemas-microsoft-com:datatypes""><Description dt:dt=""string"">E-Prime Primary Realtime Clock</Description><StartTime><Timestamp dt:dt=""int"">0</Timestamp><DateUtc dt:dt=""string"">2023-02-18T03:14:04Z</DateUtc></StartTime><FrequencyChanges><FrequencyChange><Frequency dt:dt=""r8"">2929931</Frequency><Timestamp dt:dt=""r8"">25396638564</Timestamp><Current dt:dt=""r8"">0</Current><DateUtc dt:dt=""string"">2023-02-18T03:14:04Z</DateUtc></FrequencyChange></FrequencyChanges></Clock>\n",Wisconsin-1157-4,59.958,1.0.0.565,1,-372609654,2.0.10.356,2.0.10.356,02-18-2023,2/18/2023 3:14:04 AM,11:14:04,2.0.10.252,3,,,,2.0,1.0,2.0,BlockProc2,List3,1,,,,,,,,,,,,,,,,,,,,3.0,1.0,1.0,,,,ShapeProc2,List4,,,,,,,,,2.0,Button1.png,Button2.png,Button3.png,Button4.png,Redtriangle3.png,,,,,,,x,0.0,,,,,,,0.0,TrialProc,ShapeList1,,,,7.0,1.0,2.0,1.0,x,0.0,1.0,374099.0,0.0,x,1518.0,Shape
Wisconsin,1157,4,"<?xml version=""1.0""?>\n<Clock xmlns:dt=""urn:schemas-microsoft-com:datatypes""><Description dt:dt=""string"">E-Prime Primary Realtime Clock</Description><StartTime><Timestamp dt:dt=""int"">0</Timestamp><DateUtc dt:dt=""string"">2023-02-18T03:14:04Z</DateUtc></StartTime><FrequencyChanges><FrequencyChange><Frequency dt:dt=""r8"">2929931</Frequency><Timestamp dt:dt=""r8"">25396638564</Timestamp><Current dt:dt=""r8"">0</Current><DateUtc dt:dt=""string"">2023-02-18T03:14:04Z</DateUtc></FrequencyChange></FrequencyChanges></Clock>\n",Wisconsin-1157-4,59.958,1.0.0.565,1,-372609654,2.0.10.356,2.0.10.356,02-18-2023,2/18/2023 3:14:04 AM,11:14:04,2.0.10.252,3,,,,2.0,1.0,2.0,BlockProc2,List3,1,,,,,,,,,,,,,,,,,,,,3.0,1.0,1.0,,,,ShapeProc2,List4,,,,,,,,,3.0,Button1.png,Button2.png,Button3.png,Button4.png,Redstar3.png,,,,,,,v,0.0,,,,,,,0.0,TrialProc,ShapeList1,,,,6.0,1.0,3.0,1.0,v,0.0,1.0,378152.0,0.0,v,4584.0,Shape
Wisconsin,1157,4,"<?xml version=""1.0""?>\n<Clock xmlns:dt=""urn:schemas-microsoft-com:datatypes""><Description dt:dt=""string"">E-Prime Primary Realtime Clock</Description><StartTime><Timestamp dt:dt=""int"">0</Timestamp><DateUtc dt:dt=""string"">2023-02-18T03:14:04Z</DateUtc></StartTime><FrequencyChanges><FrequencyChange><Frequency dt:dt=""r8"">2929931</Frequency><Timestamp dt:dt=""r8"">25396638564</Timestamp><Current dt:dt=""r8"">0</Current><DateUtc dt:dt=""string"">2023-02-18T03:14:04Z</DateUtc></FrequencyChange></FrequencyChanges></Clock>\n",Wisconsin-1157-4,59.958,1.0.0.565,1,-372609654,2.0.10.356,2.0.10.356,02-18-2023,2/18/2023 3:14:04 AM,11:14:04,2.0.10.252,3,,,,2.0,1.0,2.0,BlockProc2,List3,1,,,,,,,,,,,,,,,,,,,,3.0,1.0,1.0,,,,ShapeProc2,List4,,,,,,,,,4.0,Button1.png,Button2.png,Button3.png,Button4.png,Yellowtriangle1.png,,,,,,,x,0.0,,,,,,,0.0,TrialProc,ShapeList1,,,,10.0,1.0,4.0,1.0,x,0.0,1.0,385274.0,0.0,x,2886.0,Shape
Wisconsin,1157,4,"<?xml version=""1.0""?>\n<Clock xmlns:dt=""urn:schemas-microsoft-com:datatypes""><Description dt:dt=""string"">E-Prime Primary Realtime Clock</Description><StartTime><Timestamp dt:dt=""int"">0</Timestamp><DateUtc dt:dt=""string"">2023-02-18T03:14:04Z</DateUtc></StartTime><FrequencyChanges><FrequencyChange><Frequency dt:dt=""r8"">2929931</Frequency><Timestamp dt:dt=""r8"">25396638564</Timestamp><Current dt:dt=""r8"">0</Current><DateUtc dt:dt=""string"">2023-02-18T03:14:04Z</DateUtc></FrequencyChange></FrequencyChanges></Clock>\n",Wisconsin-1157-4,59.958,1.0.0.565,1,-372609654,2.0.10.356,2.0.10.356,02-18-2023,2/18/2023 3:14:04 AM,11:14:04,2.0.10.252,3,,,,2.0,1.0,2.0,BlockProc2,List3,1,,,,,,,,,,,,,,,,,,,,3.0,1.0,1.0,,,,ShapeProc2,List4,,,,,,,,,5.0,Button1.png,Button2.png,Button3.png,Button4.png,Redcross2.png,,,,,,,c,0.0,,,,,,,0.0,TrialProc,ShapeList1,,,,5.0,1.0,5.0,1.0,c,0.0,1.0,390694.0,0.0,c,2682.0,Shape
Wisconsin,1157,4,"<?xml version=""1.0""?>\n<Clock xmlns:dt=""urn:schemas-microsoft-com:datatypes""><Description dt:dt=""string"">E-Prime Primary Realtime Clock</Description><StartTime><Timestamp dt:dt=""int"">0</Timestamp><DateUtc dt:dt=""string"">2023-02-18T03:14:04Z</DateUtc></StartTime><FrequencyChanges><FrequencyChange><Frequency dt:dt=""r8"">2929931</Frequency><Timestamp dt:dt=""r8"">25396638564</Timestamp><Current dt:dt=""r8"">0</Current><DateUtc dt:dt=""string"">2023-02-18T03:14:04Z</DateUtc></FrequencyChange></FrequencyChanges></Clock>\n",Wisconsin-1157-4,59.958,1.0.0.565,1,-372609654,2.0.10.356,2.0.10.356,02-18-2023,2/18/2023 3:14:04 AM,11:14:04,2.0.10.252,3,,,,2.0,1.0,2.0,BlockProc2,List3,1,,,,,,,,,,,,,,,,,,,,3.0,1.0,1.0,,,,ShapeProc2,List4,,,,,,,,,6.0,Button1.png,Button2.png,Button3.png,Button4.png,redcircle1.png,,,,,,,z,0.0,,,,,,,0.0,TrialProc,ShapeList1,,,,4.0,1.0,6.0,1.0,z,0.0,0.0,395914.0,0.0,z,2373.0,Shape
Wisconsin,1157,4,"<?xml version=""1.0""?>\n<Clock xmlns:dt=""urn:schemas-microsoft-com:datatypes""><Description dt:dt=""string"">E-Prime Primary Realtime Clock</Description><StartTime><Timestamp dt:dt=""int"">0</Timestamp><DateUtc dt:dt=""string"">2023-02-18T03:14:04Z</DateUtc></StartTime><FrequencyChanges><FrequencyChange><Frequency dt:dt=""r8"">2929931</Frequency><Timestamp dt:dt=""r8"">25396638564</Timestamp><Current dt:dt=""r8"">0</Current><DateUtc dt:dt=""string"">2023-02-18T03:14:04Z</DateUtc></FrequencyChange></FrequencyChanges></Clock>\n",Wisconsin-1157-4,59.958,1.0.0.565,1,-372609654,2.0.10.356,2.0.10.356,02-18-2023,2/18/2023 3:14:04 AM,11:14:04,2.0.10.252,3,,,,2.0,1.0,2.0,BlockProc2,List3,1,,,,,,,,,,,,,,,,,,,,3.0,1.0,1.0,,,,ShapeProc2,List4,,,,,,,,,7.0,Button1.png,Button2.png,Button3.png,Button4.png,Bluetriangle2.png,,,,,,,x,0.0,,,,,,,0.0,TrialProc,ShapeList1,,,,2.0,1.0,7.0,1.0,x,0.0,1.0,400818.0,0.0,x,3229.0,Shape
Wisconsin,1157,4,"<?xml version=""1.0""?>\n<Clock xmlns:dt=""urn:schemas-microsoft-com:datatypes""><Description dt:dt=""string"">E-Prime Primary Realtime Clock</Description><StartTime><Timestamp dt:dt=""int"">0</Timestamp><DateUtc dt:dt=""string"">2023-02-18T03:14:04Z</DateUtc></StartTime><FrequencyChanges><FrequencyChange><Frequency dt:dt=""r8"">2929931</Frequency><Timestamp dt:dt=""r8"">25396638564</Timestamp><Current dt:dt=""r8"">0</Current><DateUtc dt:dt=""string"">2023-02-18T03:14:04Z</DateUtc></FrequencyChange></FrequencyChanges></Clock>\n",Wisconsin-1157-4,59.958,1.0.0.565,1,-372609654,2.0.10.356,2.0.10.356,02-18-2023,2/18/2023 3:14:04 AM,11:14:04,2.0.10.252,3,,,,2.0,1.0,2.0,BlockProc2,List3,1,,,,,,,,,,,,,,,,,,,,3.0,1.0,1.0,,,,ShapeProc2,List4,,,,,,,,,8.0,Button1.png,Button2.png,Button3.png,Button4.png,yellowcross4.png,,,,,,,c,0.0,,,,,,,0.0,TrialProc,ShapeList1,,,,8.0,1.0,8.0,1.0,c,0.0,1.0,406589.0,0.0,c,3201.0,Shape
Wisconsin,1157,4,"<?xml version=""1.0""?>\n<Clock xmlns:dt=""urn:schemas-microsoft-com:datatypes""><Description dt:dt=""string"">E-Prime Primary Realtime Clock</Description><StartTime><Timestamp dt:dt=""int"">0</Timestamp><DateUtc dt:dt=""string"">2023-02-18T03:14:04Z</DateUtc></StartTime><FrequencyChanges><FrequencyChange><Frequency dt:dt=""r8"">2929931</Frequency><Timestamp dt:dt=""r8"">25396638564</Timestamp><Current dt:dt=""r8"">0</Current><DateUtc dt:dt=""string"">2023-02-18T03:14:04Z</DateUtc></FrequencyChange></FrequencyChanges></Clock>\n",Wisconsin-1157-4,59.958,1.0.0.565,1,-372609654,2.0.10.356,2.0.10.356,02-18-2023,2/18/2023 3:14:04 AM,11:14:04,2.0.10.252,3,,,,2.0,1.0,2.0,BlockProc2,List3,1,,,,,,,,,,,,,,,,,,,,3.0,1.0,1.0,,,,ShapeProc2,List4,,,,,,,,,9.0,Button1.png,Button2.png,Button3.png,Button4.png,Yellowstar2.png,,,,,,,v,0.0,,,,,,,0.0,TrialProc,ShapeList1,,,,9.0,1.0,9.0,1.0,v,0.0,1.0,412326.0,0.0,v,2424.0,Shape
Wisconsin,1157,4,"<?xml version=""1.0""?>\n<Clock xmlns:dt=""urn:schemas-microsoft-com:datatypes""><Description dt:dt=""string"">E-Prime Primary Realtime Clock</Description><StartTime><Timestamp dt:dt=""int"">0</Timestamp><DateUtc dt:dt=""string"">2023-02-18T03:14:04Z</DateUtc></StartTime><FrequencyChanges><FrequencyChange><Frequency dt:dt=""r8"">2929931</Frequency><Timestamp dt:dt=""r8"">25396638564</Timestamp><Current dt:dt=""r8"">0</Current><DateUtc dt:dt=""string"">2023-02-18T03:14:04Z</DateUtc></FrequencyChange></FrequencyChanges></Clock>\n",Wisconsin-1157-4,59.958,1.0.0.565,1,-372609654,2.0.10.356,2.0.10.356,02-18-2023,2/18/2023 3:14:04 AM,11:14:04,2.0.10.252,3,,,,2.0,1.0,2.0,BlockProc2,List3,1,,,,,,,,,,,,,,,,,,,,3.0,1.0,1.0,,,,ShapeProc2,List4,,,,,,,,,10.0,Button1.png,Button2.png,Button3.png,Button4.png,Bluecircle3.png,,,,,,,z,0.0,,,,,,,0.0,TrialProc,ShapeList1,,,,1.0,1.0,10.0,1.0,z,0.0,0.0,417279.0,0.0,z,1918.0,Shape
Wisconsin,1157,4,"<?xml version=""1.0""?>\n<Clock xmlns:dt=""urn:schemas-microsoft-com:datatypes""><Description dt:dt=""string"">E-Prime Primary Realtime Clock</Description><StartTime><Timestamp dt:dt=""int"">0</Timestamp><DateUtc dt:dt=""string"">2023-02-18T03:14:04Z</DateUtc></StartTime><FrequencyChanges><FrequencyChange><Frequency dt:dt=""r8"">2929931</Frequency><Timestamp dt:dt=""r8"">25396638564</Timestamp><Current dt:dt=""r8"">0</Current><DateUtc dt:dt=""string"">2023-02-18T03:14:04Z</DateUtc></FrequencyChange></FrequencyChanges></Clock>\n",Wisconsin-1157-4,59.958,1.0.0.565,1,-372609654,2.0.10.356,2.0.10.356,02-18-2023,2/18/2023 3:14:04 AM,11:14:04,2.0.10.252,3,,,,2.0,1.0,2.0,BlockProc2,List3,2,,,,,,,,,,,,,,,,,,,,1.0,1.0,2.0,,,,ColorProc2,List4,,,,,,,,,1.0,BUTTON1.png,BUTTON2.PNG,BUTTON3.png,BUTTON4.png,greencross4.png,,,,4.0,1.0,1.0,z,1.0,,,,,,,0.0,TrialProc,ColorList2,,,,,,,0.0,z,1.0,0.0,421732.0,0.0,c,1001.0,color
Wisconsin,1157,4,"<?xml version=""1.0""?>\n<Clock xmlns:dt=""urn:schemas-microsoft-com:datatypes""><Description dt:dt=""string"">E-Prime Primary Realtime Clock</Description><StartTime><Timestamp dt:dt=""int"">0</Timestamp><DateUtc dt:dt=""string"">2023-02-18T03:14:04Z</DateUtc></StartTime><FrequencyChanges><FrequencyChange><Frequency dt:dt=""r8"">2929931</Frequency><Timestamp dt:dt=""r8"">25396638564</Timestamp><Current dt:dt=""r8"">0</Current><DateUtc dt:dt=""string"">2023-02-18T03:14:04Z</DateUtc></FrequencyChange></FrequencyChanges></Clock>\n",Wisconsin-1157-4,59.958,1.0.0.565,1,-372609654,2.0.10.356,2.0.10.356,02-18-2023,2/18/2023 3:14:04 AM,11:14:04,2.0.10.252,3,,,,2.0,1.0,2.0,BlockProc2,List3,2,,,,,,,,,,,,,,,,,,,,1.0,1.0,2.0,,,,ColorProc2,List4,,,,,,,,,2.0,BUTTON1.png,BUTTON2.PNG,BUTTON3.png,BUTTON4.png,greentriangle2.png,,,,6.0,1.0,2.0,z,0.0,,,,,,,0.0,TrialProc,ColorList2,,,,,,,1.0,z,0.0,0.0,425268.0,0.0,z,1593.0,color
Wisconsin,1157,4,"<?xml version=""1.0""?>\n<Clock xmlns:dt=""urn:schemas-microsoft-com:datatypes""><Description dt:dt=""string"">E-Prime Primary Realtime Clock</Description><StartTime><Timestamp dt:dt=""int"">0</Timestamp><DateUtc dt:dt=""string"">2023-02-18T03:14:04Z</DateUtc></StartTime><FrequencyChanges><FrequencyChange><Frequency dt:dt=""r8"">2929931</Frequency><Timestamp dt:dt=""r8"">25396638564</Timestamp><Current dt:dt=""r8"">0</Current><DateUtc dt:dt=""string"">2023-02-18T03:14:04Z</DateUtc></FrequencyChange></FrequencyChanges></Clock>\n",Wisconsin-1157-4,59.958,1.0.0.565,1,-372609654,2.0.10.356,2.0.10.356,02-18-2023,2/18/2023 3:14:04 AM,11:14:04,2.0.10.252,3,,,,2.0,1.0,2.0,BlockProc2,List3,2,,,,,,,,,,,,,,,,,,,,1.0,1.0,2.0,,,,ColorProc2,List4,,,,,,,,,3.0,BUTTON1.png,BUTTON2.PNG,BUTTON3.png,BUTTON4.png,greenstar4.png,,,,5.0,1.0,3.0,z,0.0,,,,,,,0.0,TrialProc,ColorList2,,,,,,,1.0,z,0.0,1.0,429388.0,0.0,z,2704.0,color
Wisconsin,1157,4,"<?xml version=""1.0""?>\n<Clock xmlns:dt=""urn:schemas-microsoft-com:datatypes""><Description dt:dt=""string"">E-Prime Primary Realtime Clock</Description><StartTime><Timestamp dt:dt=""int"">0</Timestamp><DateUtc dt:dt=""string"">2023-02-18T03:14:04Z</DateUtc></StartTime><FrequencyChanges><FrequencyChange><Frequency dt:dt=""r8"">2929931</Frequency><Timestamp dt:dt=""r8"">25396638564</Timestamp><Current dt:dt=""r8"">0</Current><DateUtc dt:dt=""string"">2023-02-18T03:14:04Z</DateUtc></FrequencyChange></FrequencyChanges></Clock>\n",Wisconsin-1157-4,59.958,1.0.0.565,1,-372609654,2.0.10.356,2.0.10.356,02-18-2023,2/18/2023 3:14:04 AM,11:14:04,2.0.10.252,3,,,,2.0,1.0,2.0,BlockProc2,List3,2,,,,,,,,,,,,,,,,,,,,1.0,1.0,2.0,,,,ColorProc2,List4,,,,,,,,,4.0,BUTTON1.png,BUTTON2.PNG,BUTTON3.png,BUTTON4.png,redstar4.png,,,,8.0,1.0,4.0,c,0.0,,,,,,,0.0,TrialProc,ColorList2,,,,,,,1.0,c,0.0,1.0,434625.0,0.0,c,1915.0,color
Wisconsin,1157,4,"<?xml version=""1.0""?>\n<Clock xmlns:dt=""urn:schemas-microsoft-com:datatypes""><Description dt:dt=""string"">E-Prime Primary Realtime Clock</Description><StartTime><Timestamp dt:dt=""int"">0</Timestamp><DateUtc dt:dt=""string"">2023-02-18T03:14:04Z</DateUtc></StartTime><FrequencyChanges><FrequencyChange><Frequency dt:dt=""r8"">2929931</Frequency><Timestamp dt:dt=""r8"">25396638564</Timestamp><Current dt:dt=""r8"">0</Current><DateUtc dt:dt=""string"">2023-02-18T03:14:04Z</DateUtc></FrequencyChange></FrequencyChanges></Clock>\n",Wisconsin-1157-4,59.958,1.0.0.565,1,-372609654,2.0.10.356,2.0.10.356,02-18-2023,2/18/2023 3:14:04 AM,11:14:04,2.0.10.252,3,,,,2.0,1.0,2.0,BlockProc2,List3,2,,,,,,,,,,,,,,,,,,,,1.0,1.0,2.0,,,,ColorProc2,List4,,,,,,,,,5.0,BUTTON1.png,BUTTON2.PNG,BUTTON3.png,BUTTON4.png,Greencircle1.png,,,,3.0,1.0,5.0,z,0.0,,,,,,,0.0,TrialProc,ColorList2,,,,,,,1.0,z,0.0,1.0,439078.0,0.0,z,1206.0,color
Wisconsin,1157,4,"<?xml version=""1.0""?>\n<Clock xmlns:dt=""urn:schemas-microsoft-com:datatypes""><Description dt:dt=""string"">E-Prime Primary Realtime Clock</Description><StartTime><Timestamp dt:dt=""int"">0</Timestamp><DateUtc dt:dt=""string"">2023-02-18T03:14:04Z</DateUtc></StartTime><FrequencyChanges><FrequencyChange><Frequency dt:dt=""r8"">2929931</Frequency><Timestamp dt:dt=""r8"">25396638564</Timestamp><Current dt:dt=""r8"">0</Current><DateUtc dt:dt=""string"">2023-02-18T03:14:04Z</DateUtc></FrequencyChange></FrequencyChanges></Clock>\n",Wisconsin-1157-4,59.958,1.0.0.565,1,-372609654,2.0.10.356,2.0.10.356,02-18-2023,2/18/2023 3:14:04 AM,11:14:04,2.0.10.252,3,,,,2.0,1.0,2.0,BlockProc2,List3,2,,,,,,,,,,,,,,,,,,,,1.0,1.0,2.0,,,,ColorProc2,List4,,,,,,,,,6.0,BUTTON1.png,BUTTON2.PNG,BUTTON3.png,BUTTON4.png,yellowtriangle3.png,,,,10.0,1.0,6.0,x,0.0,,,,,,,0.0,TrialProc,ColorList2,,,,,,,1.0,x,0.0,1.0,442814.0,0.0,x,2141.0,color
Wisconsin,1157,4,"<?xml version=""1.0""?>\n<Clock xmlns:dt=""urn:schemas-microsoft-com:datatypes""><Description dt:dt=""string"">E-Prime Primary Realtime Clock</Description><StartTime><Timestamp dt:dt=""int"">0</Timestamp><DateUtc dt:dt=""string"">2023-02-18T03:14:04Z</DateUtc></StartTime><FrequencyChanges><FrequencyChange><Frequency dt:dt=""r8"">2929931</Frequency><Timestamp dt:dt=""r8"">25396638564</Timestamp><Current dt:dt=""r8"">0</Current><DateUtc dt:dt=""string"">2023-02-18T03:14:04Z</DateUtc></FrequencyChange></FrequencyChanges></Clock>\n",Wisconsin-1157-4,59.958,1.0.0.565,1,-372609654,2.0.10.356,2.0.10.356,02-18-2023,2/18/2023 3:14:04 AM,11:14:04,2.0.10.252,3,,,,2.0,1.0,2.0,BlockProc2,List3,2,,,,,,,,,,,,,,,,,,,,1.0,1.0,2.0,,,,ColorProc2,List4,,,,,,,,,7.0,BUTTON1.png,BUTTON2.PNG,BUTTON3.png,BUTTON4.png,Redcircle2.png,,,,7.0,1.0,7.0,c,0.0,,,,,,,0.0,TrialProc,ColorList2,,,,,,,1.0,c,0.0,1.0,447484.0,0.0,c,4255.0,color
Wisconsin,1157,4,"<?xml version=""1.0""?>\n<Clock xmlns:dt=""urn:schemas-microsoft-com:datatypes""><Description dt:dt=""string"">E-Prime Primary Realtime Clock</Description><StartTime><Timestamp dt:dt=""int"">0</Timestamp><DateUtc dt:dt=""string"">2023-02-18T03:14:04Z</DateUtc></StartTime><FrequencyChanges><FrequencyChange><Frequency dt:dt=""r8"">2929931</Frequency><Timestamp dt:dt=""r8"">25396638564</Timestamp><Current dt:dt=""r8"">0</Current><DateUtc dt:dt=""string"">2023-02-18T03:14:04Z</DateUtc></FrequencyChange></FrequencyChanges></Clock>\n",Wisconsin-1157-4,59.958,1.0.0.565,1,-372609654,2.0.10.356,2.0.10.356,02-18-2023,2/18/2023 3:14:04 AM,11:14:04,2.0.10.252,3,,,,2.0,1.0,2.0,BlockProc2,List3,2,,,,,,,,,,,,,,,,,,,,1.0,1.0,2.0,,,,ColorProc2,List4,,,,,,,,,8.0,BUTTON1.png,BUTTON2.PNG,BUTTON3.png,BUTTON4.png,bluecross1.png,,,,1.0,1.0,8.0,v,0.0,,,,,,,0.0,TrialProc,ColorList2,,,,,,,1.0,v,0.0,1.0,454272.0,0.0,v,6090.0,color
Wisconsin,1157,4,"<?xml version=""1.0""?>\n<Clock xmlns:dt=""urn:schemas-microsoft-com:datatypes""><Description dt:dt=""string"">E-Prime Primary Realtime Clock</Description><StartTime><Timestamp dt:dt=""int"">0</Timestamp><DateUtc dt:dt=""string"">2023-02-18T03:14:04Z</DateUtc></StartTime><FrequencyChanges><FrequencyChange><Frequency dt:dt=""r8"">2929931</Frequency><Timestamp dt:dt=""r8"">25396638564</Timestamp><Current dt:dt=""r8"">0</Current><DateUtc dt:dt=""string"">2023-02-18T03:14:04Z</DateUtc></FrequencyChange></FrequencyChanges></Clock>\n",Wisconsin-1157-4,59.958,1.0.0.565,1,-372609654,2.0.10.356,2.0.10.356,02-18-2023,2/18/2023 3:14:04 AM,11:14:04,2.0.10.252,3,,,,2.0,1.0,2.0,BlockProc2,List3,2,,,,,,,,,,,,,,,,,,,,1.0,1.0,2.0,,,,ColorProc2,List4,,,,,,,,,9.0,BUTTON1.png,BUTTON2.PNG,BUTTON3.png,BUTTON4.png,yellowcircle2.png,,,,9.0,1.0,9.0,x,0.0,,,,,,,0.0,TrialProc,ColorList2,,,,,,,1.0,x,0.0,1.0,462895.0,0.0,x,2251.0,color
Wisconsin,1157,4,"<?xml version=""1.0""?>\n<Clock xmlns:dt=""urn:schemas-microsoft-com:datatypes""><Description dt:dt=""string"">E-Prime Primary Realtime Clock</Description><StartTime><Timestamp dt:dt=""int"">0</Timestamp><DateUtc dt:dt=""string"">2023-02-18T03:14:04Z</DateUtc></StartTime><FrequencyChanges><FrequencyChange><Frequency dt:dt=""r8"">2929931</Frequency><Timestamp dt:dt=""r8"">25396638564</Timestamp><Current dt:dt=""r8"">0</Current><DateUtc dt:dt=""string"">2023-02-18T03:14:04Z</DateUtc></FrequencyChange></FrequencyChanges></Clock>\n",Wisconsin-1157-4,59.958,1.0.0.565,1,-372609654,2.0.10.356,2.0.10.356,02-18-2023,2/18/2023 3:14:04 AM,11:14:04,2.0.10.252,3,,,,2.0,1.0,2.0,BlockProc2,List3,2,,,,,,,,,,,,,,,,,,,,1.0,1.0,2.0,,,,ColorProc2,List4,,,,,,,,,10.0,BUTTON1.png,BUTTON2.PNG,BUTTON3.png,BUTTON4.png,bluestar3.png,,,,2.0,1.0,10.0,v,0.0,,,,,,,0.0,TrialProc,ColorList2,,,,,,,1.0,v,0.0,0.0,467681.0,0.0,v,1928.0,color
Wisconsin,1157,4,"<?xml version=""1.0""?>\n<Clock xmlns:dt=""urn:schemas-microsoft-com:datatypes""><Description dt:dt=""string"">E-Prime Primary Realtime Clock</Description><StartTime><Timestamp dt:dt=""int"">0</Timestamp><DateUtc dt:dt=""string"">2023-02-18T03:14:04Z</DateUtc></StartTime><FrequencyChanges><FrequencyChange><Frequency dt:dt=""r8"">2929931</Frequency><Timestamp dt:dt=""r8"">25396638564</Timestamp><Current dt:dt=""r8"">0</Current><DateUtc dt:dt=""string"">2023-02-18T03:14:04Z</DateUtc></FrequencyChange></FrequencyChanges></Clock>\n",Wisconsin-1157-4,59.958,1.0.0.565,1,-372609654,2.0.10.356,2.0.10.356,02-18-2023,2/18/2023 3:14:04 AM,11:14:04,2.0.10.252,3,,,,2.0,1.0,2.0,BlockProc2,List3,3,,,,,,,,,,,,,,,,,,,,2.0,1.0,3.0,,,,NumberProc2,List4,,,,,,,,,1.0,Button1.png,Button2.png,Button3.png,Button4.png,Yellowtriangle2.png,,,,,,,z,1.0,,,,10.0,1.0,1.0,0.0,TrialProc,NumberList1,,,,,,,0.0,z,0.0,1.0,472151.0,0.0,x,1842.0,number
Wisconsin,1157,4,"<?xml version=""1.0""?>\n<Clock xmlns:dt=""urn:schemas-microsoft-com:datatypes""><Description dt:dt=""string"">E-Prime Primary Realtime Clock</Description><StartTime><Timestamp dt:dt=""int"">0</Timestamp><DateUtc dt:dt=""string"">2023-02-18T03:14:04Z</DateUtc></StartTime><FrequencyChanges><FrequencyChange><Frequency dt:dt=""r8"">2929931</Frequency><Timestamp dt:dt=""r8"">25396638564</Timestamp><Current dt:dt=""r8"">0</Current><DateUtc dt:dt=""string"">2023-02-18T03:14:04Z</DateUtc></FrequencyChange></FrequencyChanges></Clock>\n",Wisconsin-1157-4,59.958,1.0.0.565,1,-372609654,2.0.10.356,2.0.10.356,02-18-2023,2/18/2023 3:14:04 AM,11:14:04,2.0.10.252,3,,,,2.0,1.0,2.0,BlockProc2,List3,3,,,,,,,,,,,,,,,,,,,,2.0,1.0,3.0,,,,NumberProc2,List4,,,,,,,,,2.0,Button1.png,Button2.png,Button3.png,Button4.png,Redtriangle2.png,,,,,,,z,1.0,,,,7.0,1.0,2.0,0.0,TrialProc,NumberList1,,,,,,,0.0,z,0.0,1.0,476521.0,0.0,x,1232.0,number
Wisconsin,1157,4,"<?xml version=""1.0""?>\n<Clock xmlns:dt=""urn:schemas-microsoft-com:datatypes""><Description dt:dt=""string"">E-Prime Primary Realtime Clock</Description><StartTime><Timestamp dt:dt=""int"">0</Timestamp><DateUtc dt:dt=""string"">2023-02-18T03:14:04Z</DateUtc></StartTime><FrequencyChanges><FrequencyChange><Frequency dt:dt=""r8"">2929931</Frequency><Timestamp dt:dt=""r8"">25396638564</Timestamp><Current dt:dt=""r8"">0</Current><DateUtc dt:dt=""string"">2023-02-18T03:14:04Z</DateUtc></FrequencyChange></FrequencyChanges></Clock>\n",Wisconsin-1157-4,59.958,1.0.0.565,1,-372609654,2.0.10.356,2.0.10.356,02-18-2023,2/18/2023 3:14:04 AM,11:14:04,2.0.10.252,3,,,,2.0,1.0,2.0,BlockProc2,List3,3,,,,,,,,,,,,,,,,,,,,2.0,1.0,3.0,,,,NumberProc2,List4,,,,,,,,,3.0,Button1.png,Button2.png,Button3.png,Button4.png,Greenstar1.png,,,,,,,v,0.0,,,,5.0,1.0,3.0,0.0,TrialProc,NumberList1,,,,,,,1.0,v,0.0,1.0,480290.0,0.0,v,1526.0,number
Wisconsin,1157,4,"<?xml version=""1.0""?>\n<Clock xmlns:dt=""urn:schemas-microsoft-com:datatypes""><Description dt:dt=""string"">E-Prime Primary Realtime Clock</Description><StartTime><Timestamp dt:dt=""int"">0</Timestamp><DateUtc dt:dt=""string"">2023-02-18T03:14:04Z</DateUtc></StartTime><FrequencyChanges><FrequencyChange><Frequency dt:dt=""r8"">2929931</Frequency><Timestamp dt:dt=""r8"">25396638564</Timestamp><Current dt:dt=""r8"">0</Current><DateUtc dt:dt=""string"">2023-02-18T03:14:04Z</DateUtc></FrequencyChange></FrequencyChanges></Clock>\n",Wisconsin-1157-4,59.958,1.0.0.565,1,-372609654,2.0.10.356,2.0.10.356,02-18-2023,2/18/2023 3:14:04 AM,11:14:04,2.0.10.252,3,,,,2.0,1.0,2.0,BlockProc2,List3,3,,,,,,,,,,,,,,,,,,,,2.0,1.0,3.0,,,,NumberProc2,List4,,,,,,,,,4.0,Button1.png,Button2.png,Button3.png,Button4.png,Bluetriangle4.png,,,,,,,x,0.0,,,,3.0,1.0,4.0,0.0,TrialProc,NumberList1,,,,,,,1.0,x,0.0,1.0,484360.0,0.0,x,1504.0,number
Wisconsin,1157,4,"<?xml version=""1.0""?>\n<Clock xmlns:dt=""urn:schemas-microsoft-com:datatypes""><Description dt:dt=""string"">E-Prime Primary Realtime Clock</Description><StartTime><Timestamp dt:dt=""int"">0</Timestamp><DateUtc dt:dt=""string"">2023-02-18T03:14:04Z</DateUtc></StartTime><FrequencyChanges><FrequencyChange><Frequency dt:dt=""r8"">2929931</Frequency><Timestamp dt:dt=""r8"">25396638564</Timestamp><Current dt:dt=""r8"">0</Current><DateUtc dt:dt=""string"">2023-02-18T03:14:04Z</DateUtc></FrequencyChange></FrequencyChanges></Clock>\n",Wisconsin-1157-4,59.958,1.0.0.565,1,-372609654,2.0.10.356,2.0.10.356,02-18-2023,2/18/2023 3:14:04 AM,11:14:04,2.0.10.252,3,,,,2.0,1.0,2.0,BlockProc2,List3,3,,,,,,,,,,,,,,,,,,,,2.0,1.0,3.0,,,,NumberProc2,List4,,,,,,,,,5.0,Button1.png,Button2.png,Button3.png,Button4.png,Greencross2.png,,,,,,,z,0.0,,,,4.0,1.0,5.0,0.0,TrialProc,NumberList1,,,,,,,1.0,z,0.0,1.0,488396.0,0.0,z,2539.0,number
Wisconsin,1157,4,"<?xml version=""1.0""?>\n<Clock xmlns:dt=""urn:schemas-microsoft-com:datatypes""><Description dt:dt=""string"">E-Prime Primary Realtime Clock</Description><StartTime><Timestamp dt:dt=""int"">0</Timestamp><DateUtc dt:dt=""string"">2023-02-18T03:14:04Z</DateUtc></StartTime><FrequencyChanges><FrequencyChange><Frequency dt:dt=""r8"">2929931</Frequency><Timestamp dt:dt=""r8"">25396638564</Timestamp><Current dt:dt=""r8"">0</Current><DateUtc dt:dt=""string"">2023-02-18T03:14:04Z</DateUtc></FrequencyChange></FrequencyChanges></Clock>\n",Wisconsin-1157-4,59.958,1.0.0.565,1,-372609654,2.0.10.356,2.0.10.356,02-18-2023,2/18/2023 3:14:04 AM,11:14:04,2.0.10.252,3,,,,2.0,1.0,2.0,BlockProc2,List3,3,,,,,,,,,,,,,,,,,,,,2.0,1.0,3.0,,,,NumberProc2,List4,,,,,,,,,6.0,Button1.png,Button2.png,Button3.png,Button4.png,Bluestar4.png,,,,,,,x,0.0,,,,2.0,1.0,6.0,0.0,TrialProc,NumberList1,,,,,,,1.0,x,0.0,1.0,493466.0,0.0,x,4061.0,number
Wisconsin,1157,4,"<?xml version=""1.0""?>\n<Clock xmlns:dt=""urn:schemas-microsoft-com:datatypes""><Description dt:dt=""string"">E-Prime Primary Realtime Clock</Description><StartTime><Timestamp dt:dt=""int"">0</Timestamp><DateUtc dt:dt=""string"">2023-02-18T03:14:04Z</DateUtc></StartTime><FrequencyChanges><FrequencyChange><Frequency dt:dt=""r8"">2929931</Frequency><Timestamp dt:dt=""r8"">25396638564</Timestamp><Current dt:dt=""r8"">0</Current><DateUtc dt:dt=""string"">2023-02-18T03:14:04Z</DateUtc></FrequencyChange></FrequencyChanges></Clock>\n",Wisconsin-1157-4,59.958,1.0.0.565,1,-372609654,2.0.10.356,2.0.10.356,02-18-2023,2/18/2023 3:14:04 AM,11:14:04,2.0.10.252,3,,,,2.0,1.0,2.0,BlockProc2,List3,3,,,,,,,,,,,,,,,,,,,,2.0,1.0,3.0,,,,NumberProc2,List4,,,,,,,,,7.0,Button1.png,Button2.png,Button3.png,Button4.png,Bluecross3.png,,,,,,,c,0.0,,,,1.0,1.0,7.0,0.0,TrialProc,NumberList1,,,,,,,1.0,c,0.0,1.0,500071.0,0.0,c,1600.0,number
Wisconsin,1157,4,"<?xml version=""1.0""?>\n<Clock xmlns:dt=""urn:schemas-microsoft-com:datatypes""><Description dt:dt=""string"">E-Prime Primary Realtime Clock</Description><StartTime><Timestamp dt:dt=""int"">0</Timestamp><DateUtc dt:dt=""string"">2023-02-18T03:14:04Z</DateUtc></StartTime><FrequencyChanges><FrequencyChange><Frequency dt:dt=""r8"">2929931</Frequency><Timestamp dt:dt=""r8"">25396638564</Timestamp><Current dt:dt=""r8"">0</Current><DateUtc dt:dt=""string"">2023-02-18T03:14:04Z</DateUtc></FrequencyChange></FrequencyChanges></Clock>\n",Wisconsin-1157-4,59.958,1.0.0.565,1,-372609654,2.0.10.356,2.0.10.356,02-18-2023,2/18/2023 3:14:04 AM,11:14:04,2.0.10.252,3,,,,2.0,1.0,2.0,BlockProc2,List3,3,,,,,,,,,,,,,,,,,,,,2.0,1.0,3.0,,,,NumberProc2,List4,,,,,,,,,8.0,Button1.png,Button2.png,Button3.png,Button4.png,Yellowcross2.png,,,,,,,z,0.0,,,,9.0,1.0,8.0,0.0,TrialProc,NumberList1,,,,,,,1.0,z,0.0,1.0,504207.0,0.0,z,4935.0,number
Wisconsin,1157,4,"<?xml version=""1.0""?>\n<Clock xmlns:dt=""urn:schemas-microsoft-com:datatypes""><Description dt:dt=""string"">E-Prime Primary Realtime Clock</Description><StartTime><Timestamp dt:dt=""int"">0</Timestamp><DateUtc dt:dt=""string"">2023-02-18T03:14:04Z</DateUtc></StartTime><FrequencyChanges><FrequencyChange><Frequency dt:dt=""r8"">2929931</Frequency><Timestamp dt:dt=""r8"">25396638564</Timestamp><Current dt:dt=""r8"">0</Current><DateUtc dt:dt=""string"">2023-02-18T03:14:04Z</DateUtc></FrequencyChange></FrequencyChanges></Clock>\n",Wisconsin-1157-4,59.958,1.0.0.565,1,-372609654,2.0.10.356,2.0.10.356,02-18-2023,2/18/2023 3:14:04 AM,11:14:04,2.0.10.252,3,,,,2.0,1.0,2.0,BlockProc2,List3,3,,,,,,,,,,,,,,,,,,,,2.0,1.0,3.0,,,,NumberProc2,List4,,,,,,,,,9.0,Button1.png,Button2.png,Button3.png,Button4.png,Redstar1.png,,,,,,,v,0.0,,,,6.0,1.0,9.0,0.0,TrialProc,NumberList1,,,,,,,1.0,v,0.0,1.0,511679.0,0.0,v,2934.0,number
Wisconsin,1157,4,"<?xml version=""1.0""?>\n<Clock xmlns:dt=""urn:schemas-microsoft-com:datatypes""><Description dt:dt=""string"">E-Prime Primary Realtime Clock</Description><StartTime><Timestamp dt:dt=""int"">0</Timestamp><DateUtc dt:dt=""string"">2023-02-18T03:14:04Z</DateUtc></StartTime><FrequencyChanges><FrequencyChange><Frequency dt:dt=""r8"">2929931</Frequency><Timestamp dt:dt=""r8"">25396638564</Timestamp><Current dt:dt=""r8"">0</Current><DateUtc dt:dt=""string"">2023-02-18T03:14:04Z</DateUtc></FrequencyChange></FrequencyChanges></Clock>\n",Wisconsin-1157-4,59.958,1.0.0.565,1,-372609654,2.0.10.356,2.0.10.356,02-18-2023,2/18/2023 3:14:04 AM,11:14:04,2.0.10.252,3,,,,2.0,1.0,2.0,BlockProc2,List3,3,,,,,,,,,,,,,,,,,,,,2.0,1.0,3.0,,,,NumberProc2,List4,,,,,,,,,10.0,Button1.png,Button2.png,Button3.png,Button4.png,yellowcircle4.png,,,,,,,x,0.0,,,,8.0,1.0,10.0,0.0,TrialProc,NumberList1,,,,,,,1.0,x,0.0,1.0,517149.0,0.0,x,3688.0,number
