ExperimentName,Subject,Session,Clock.Information,DataFile.Basename,Display.RefreshRate,ExperimentVersion,Group,RandomSeed,RuntimeVersion,RuntimeVersionExpected,SessionDate,SessionStartDateTimeUtc,SessionTime,StudioVersion,Block,List1,List1.Cycle,List1.Sample,List3,List3.Cycle,List3.Sample,Procedure[Block],Running[Block],Trial,CardIMG1[Trial],CardIMG2[Trial],CardIMG3[Trial],CardIMG4[Trial],CardStim[Trial],Category,CorrectAnswer[Trial],FeedbackDisplay2.ACC,FeedbackDisplay2.CRESP,FeedbackDisplay2.DurationError,FeedbackDisplay2.OnsetDelay,FeedbackDisplay2.OnsetTime,FeedbackDisplay2.OnsetToOnsetTime,FeedbackDisplay2.RESP,FeedbackDisplay2.RT,FeedbackDisplay2.RTTime,List2,List2.Cycle,List2.Sample,List4,List4.Cycle,List4.Sample,PracticeList,PracticeList.Cycle,PracticeList.Sample,Procedure[Trial],Running[Trial],FeedbackDisplay2.ACC,FeedbackDisplay2.CRESP,FeedbackDisplay2.DurationError,FeedbackDisplay2.OnsetDelay,FeedbackDisplay2.OnsetTime,FeedbackDisplay2.OnsetToOnsetTime,FeedbackDisplay2.RESP,FeedbackDisplay2.RT,SubTrial,CardIMG1[SubTrial],CardIMG2[SubTrial],CardIMG3[SubTrial],CardIMG4[SubTrial],CardStim[SubTrial],ColorList,ColorList.Cycle,ColorList.Sample,ColorList2,ColorList2.Cycle,ColorList2.Sample,CorrectAnswer[SubTrial],NonPerseverativeError,NumberList,NumberList.Cycle,NumberList.Sample,NumberList1,NumberList1.Cycle,NumberList1.Sample,PerseverativeError,Procedure[SubTrial],Running[SubTrial],ShapeList,ShapeList.Cycle,ShapeList.Sample,ShapeList1,ShapeList1.Cycle,ShapeList1.Sample,Stimulus.ACC,Stimulus.CRESP,Stimulus.DurationError,Stimulus.OnsetDelay,Stimulus.OnsetTime,Stimulus.OnsetToOnsetTime,Stimulus.RESP,Stimulus.RT,TrialType
Wisconsin,1139,4,"<?xml version=""1.0""?>\n<Clock xmlns:dt=""urn:schemas-microsoft-com:datatypes""><Description dt:dt=""string"">E-Prime Primary Realtime Clock</Description><StartTime><Timestamp dt:dt=""int"">0</Timestamp><DateUtc dt:dt=""string"">2022-12-10T08:40:53Z</DateUtc></StartTime><FrequencyChanges><FrequencyChange><Frequency dt:dt=""r8"">10000000</Frequency><Timestamp dt:dt=""r8"">2686620506179</Timestamp><Current dt:dt=""r8"">0</Current><DateUtc dt:dt=""string"">2022-12-10T08:40:53Z</DateUtc></FrequencyChange></FrequencyChanges></Clock>\n",Wisconsin-1139-4,60.013,1.0.0.248,1,-2026397074,3.0.3.80,3.0.3.80,12-10-2022,12/10/2022 8:40:53 AM,16:40:53,3.0.3.82,1,1.0,1.0,1.0,,,,Practiceploc,List1,1,Button1.png,Button2.png,Button3.png,Button4.png,Greencircle3.png,顏色,{button1},1.0,{button1},11.0,50.0,46410.0,0.0,{Button1},1624.0,48034.0,,,,,,,1.0,1.0,1.0,PracticeTrialProc,PracticeList,1.0,{button1},11.0,50.0,46410.0,0.0,{Button1},1624.0,,,,,,,,,,,,,,,,,,,,,,,,,,,,,,,,,,,,,,
Wisconsin,1139,4,"<?xml version=""1.0""?>\n<Clock xmlns:dt=""urn:schemas-microsoft-com:datatypes""><Description dt:dt=""string"">E-Prime Primary Realtime Clock</Description><StartTime><Timestamp dt:dt=""int"">0</Timestamp><DateUtc dt:dt=""string"">2022-12-10T08:40:53Z</DateUtc></StartTime><FrequencyChanges><FrequencyChange><Frequency dt:dt=""r8"">10000000</Frequency><Timestamp dt:dt=""r8"">2686620506179</Timestamp><Current dt:dt=""r8"">0</Current><DateUtc dt:dt=""string"">2022-12-10T08:40:53Z</DateUtc></FrequencyChange></FrequencyChanges></Clock>\n",Wisconsin-1139-4,60.013,1.0.0.248,1,-2026397074,3.0.3.80,3.0.3.80,12-10-2022,12/10/2022 8:40:53 AM,16:40:53,3.0.3.82,1,1.0,1.0,1.0,,,,Practiceploc,List1,2,Button1.png,Button2.png,Button3.png,Button4.png,Redstar2.png,顏色,{button3},0.0,{button3},1.0,50.0,50676.0,5015.0,,0.0,0.0,,,,,,,2.0,1.0,2.0,PracticeTrialProc,PracticeList,0.0,{button3},1.0,50.0,50676.0,5015.0,,0.0,,,,,,,,,,,,,,,,,,,,,,,,,,,,,,,,,,,,,,
Wisconsin,1139,4,"<?xml version=""1.0""?>\n<Clock xmlns:dt=""urn:schemas-microsoft-com:datatypes""><Description dt:dt=""string"">E-Prime Primary Realtime Clock</Description><StartTime><Timestamp dt:dt=""int"">0</Timestamp><DateUtc dt:dt=""string"">2022-12-10T08:40:53Z</DateUtc></StartTime><FrequencyChanges><FrequencyChange><Frequency dt:dt=""r8"">10000000</Frequency><Timestamp dt:dt=""r8"">2686620506179</Timestamp><Current dt:dt=""r8"">0</Current><DateUtc dt:dt=""string"">2022-12-10T08:40:53Z</DateUtc></FrequencyChange></FrequencyChanges></Clock>\n",Wisconsin-1139-4,60.013,1.0.0.248,1,-2026397074,3.0.3.80,3.0.3.80,12-10-2022,12/10/2022 8:40:53 AM,16:40:53,3.0.3.82,1,1.0,1.0,1.0,,,,Practiceploc,List1,3,Button1.png,Button2.png,Button3.png,Button4.png,Bluetriangle1.png,形狀,{button2},1.0,{button2},9.0,50.0,58257.0,0.0,{Button2},1529.0,59786.0,,,,,,,3.0,1.0,3.0,PracticeTrialProc,PracticeList,1.0,{button2},9.0,50.0,58257.0,0.0,{Button2},1529.0,,,,,,,,,,,,,,,,,,,,,,,,,,,,,,,,,,,,,,
Wisconsin,1139,4,"<?xml version=""1.0""?>\n<Clock xmlns:dt=""urn:schemas-microsoft-com:datatypes""><Description dt:dt=""string"">E-Prime Primary Realtime Clock</Description><StartTime><Timestamp dt:dt=""int"">0</Timestamp><DateUtc dt:dt=""string"">2022-12-10T08:40:53Z</DateUtc></StartTime><FrequencyChanges><FrequencyChange><Frequency dt:dt=""r8"">10000000</Frequency><Timestamp dt:dt=""r8"">2686620506179</Timestamp><Current dt:dt=""r8"">0</Current><DateUtc dt:dt=""string"">2022-12-10T08:40:53Z</DateUtc></FrequencyChange></FrequencyChanges></Clock>\n",Wisconsin-1139-4,60.013,1.0.0.248,1,-2026397074,3.0.3.80,3.0.3.80,12-10-2022,12/10/2022 8:40:53 AM,16:40:53,3.0.3.82,1,1.0,1.0,1.0,,,,Practiceploc,List1,4,Button1.png,Button2.png,Button3.png,Button4.png,greenstar2.png,形狀,{Button4},1.0,{Button4},10.0,34.0,62390.0,0.0,{Button4},2292.0,64682.0,,,,,,,4.0,1.0,4.0,PracticeTrialProc,PracticeList,1.0,{Button4},10.0,34.0,62390.0,0.0,{Button4},2292.0,,,,,,,,,,,,,,,,,,,,,,,,,,,,,,,,,,,,,,
Wisconsin,1139,4,"<?xml version=""1.0""?>\n<Clock xmlns:dt=""urn:schemas-microsoft-com:datatypes""><Description dt:dt=""string"">E-Prime Primary Realtime Clock</Description><StartTime><Timestamp dt:dt=""int"">0</Timestamp><DateUtc dt:dt=""string"">2022-12-10T08:40:53Z</DateUtc></StartTime><FrequencyChanges><FrequencyChange><Frequency dt:dt=""r8"">10000000</Frequency><Timestamp dt:dt=""r8"">2686620506179</Timestamp><Current dt:dt=""r8"">0</Current><DateUtc dt:dt=""string"">2022-12-10T08:40:53Z</DateUtc></FrequencyChange></FrequencyChanges></Clock>\n",Wisconsin-1139-4,60.013,1.0.0.248,1,-2026397074,3.0.3.80,3.0.3.80,12-10-2022,12/10/2022 8:40:53 AM,16:40:53,3.0.3.82,1,1.0,1.0,1.0,,,,Practiceploc,List1,5,Button1.png,Button2.png,Button3.png,Button4.png,BlueCross4.png,圖案數目,{Button2},1.0,{Button2},14.0,50.0,67272.0,0.0,{Button2},1082.0,68354.0,,,,,,,5.0,1.0,5.0,PracticeTrialProc,PracticeList,1.0,{Button2},14.0,50.0,67272.0,0.0,{Button2},1082.0,,,,,,,,,,,,,,,,,,,,,,,,,,,,,,,,,,,,,,
Wisconsin,1139,4,"<?xml version=""1.0""?>\n<Clock xmlns:dt=""urn:schemas-microsoft-com:datatypes""><Description dt:dt=""string"">E-Prime Primary Realtime Clock</Description><StartTime><Timestamp dt:dt=""int"">0</Timestamp><DateUtc dt:dt=""string"">2022-12-10T08:40:53Z</DateUtc></StartTime><FrequencyChanges><FrequencyChange><Frequency dt:dt=""r8"">10000000</Frequency><Timestamp dt:dt=""r8"">2686620506179</Timestamp><Current dt:dt=""r8"">0</Current><DateUtc dt:dt=""string"">2022-12-10T08:40:53Z</DateUtc></FrequencyChange></FrequencyChanges></Clock>\n",Wisconsin-1139-4,60.013,1.0.0.248,1,-2026397074,3.0.3.80,3.0.3.80,12-10-2022,12/10/2022 8:40:53 AM,16:40:53,3.0.3.82,1,1.0,1.0,1.0,,,,Practiceploc,List1,6,Button1.png,Button2.png,Button3.png,Button4.png,yellowcircle2.png,圖案數目,{Button1},1.0,{Button1},10.0,33.0,70937.0,0.0,{Button1},1377.0,72314.0,,,,,,,6.0,1.0,6.0,PracticeTrialProc,PracticeList,1.0,{Button1},10.0,33.0,70937.0,0.0,{Button1},1377.0,,,,,,,,,,,,,,,,,,,,,,,,,,,,,,,,,,,,,,
Wisconsin,1139,4,"<?xml version=""1.0""?>\n<Clock xmlns:dt=""urn:schemas-microsoft-com:datatypes""><Description dt:dt=""string"">E-Prime Primary Realtime Clock</Description><StartTime><Timestamp dt:dt=""int"">0</Timestamp><DateUtc dt:dt=""string"">2022-12-10T08:40:53Z</DateUtc></StartTime><FrequencyChanges><FrequencyChange><Frequency dt:dt=""r8"">10000000</Frequency><Timestamp dt:dt=""r8"">2686620506179</Timestamp><Current dt:dt=""r8"">0</Current><DateUtc dt:dt=""string"">2022-12-10T08:40:53Z</DateUtc></FrequencyChange></FrequencyChanges></Clock>\n",Wisconsin-1139-4,60.013,1.0.0.248,1,-2026397074,3.0.3.80,3.0.3.80,12-10-2022,12/10/2022 8:40:53 AM,16:40:53,3.0.3.82,2,,,,,,,BlockProc2,List2,1,,,,,,,,,,,,,,,,,2.0,1.0,1.0,1.0,1.0,1.0,,,,ColorProc2,List4,,,,,,,,,1.0,BUTTON1.png,BUTTON2.PNG,BUTTON3.png,BUTTON4.png,Greencircle1.png,,,,3.0,1.0,1.0,{Button1},0.0,,,,,,,0.0,TrialProc,ColorList2,,,,,,,1.0,{Button1},13.0,50.0,80735.0,0.0,{Button1},1739.0,color
Wisconsin,1139,4,"<?xml version=""1.0""?>\n<Clock xmlns:dt=""urn:schemas-microsoft-com:datatypes""><Description dt:dt=""string"">E-Prime Primary Realtime Clock</Description><StartTime><Timestamp dt:dt=""int"">0</Timestamp><DateUtc dt:dt=""string"">2022-12-10T08:40:53Z</DateUtc></StartTime><FrequencyChanges><FrequencyChange><Frequency dt:dt=""r8"">10000000</Frequency><Timestamp dt:dt=""r8"">2686620506179</Timestamp><Current dt:dt=""r8"">0</Current><DateUtc dt:dt=""string"">2022-12-10T08:40:53Z</DateUtc></FrequencyChange></FrequencyChanges></Clock>\n",Wisconsin-1139-4,60.013,1.0.0.248,1,-2026397074,3.0.3.80,3.0.3.80,12-10-2022,12/10/2022 8:40:53 AM,16:40:53,3.0.3.82,2,,,,,,,BlockProc2,List2,1,,,,,,,,,,,,,,,,,2.0,1.0,1.0,1.0,1.0,1.0,,,,ColorProc2,List4,,,,,,,,,2.0,BUTTON1.png,BUTTON2.PNG,BUTTON3.png,BUTTON4.png,yellowtriangle3.png,,,,10.0,1.0,2.0,{Button2},0.0,,,,,,,0.0,TrialProc,ColorList2,,,,,,,1.0,{Button2},9.0,33.0,85051.0,0.0,{Button2},1383.0,color
Wisconsin,1139,4,"<?xml version=""1.0""?>\n<Clock xmlns:dt=""urn:schemas-microsoft-com:datatypes""><Description dt:dt=""string"">E-Prime Primary Realtime Clock</Description><StartTime><Timestamp dt:dt=""int"">0</Timestamp><DateUtc dt:dt=""string"">2022-12-10T08:40:53Z</DateUtc></StartTime><FrequencyChanges><FrequencyChange><Frequency dt:dt=""r8"">10000000</Frequency><Timestamp dt:dt=""r8"">2686620506179</Timestamp><Current dt:dt=""r8"">0</Current><DateUtc dt:dt=""string"">2022-12-10T08:40:53Z</DateUtc></FrequencyChange></FrequencyChanges></Clock>\n",Wisconsin-1139-4,60.013,1.0.0.248,1,-2026397074,3.0.3.80,3.0.3.80,12-10-2022,12/10/2022 8:40:53 AM,16:40:53,3.0.3.82,2,,,,,,,BlockProc2,List2,1,,,,,,,,,,,,,,,,,2.0,1.0,1.0,1.0,1.0,1.0,,,,ColorProc2,List4,,,,,,,,,3.0,BUTTON1.png,BUTTON2.PNG,BUTTON3.png,BUTTON4.png,bluestar3.png,,,,2.0,1.0,3.0,{Button4},0.0,,,,,,,0.0,TrialProc,ColorList2,,,,,,,1.0,{Button4},9.0,33.0,89016.0,0.0,{Button4},1194.0,color
Wisconsin,1139,4,"<?xml version=""1.0""?>\n<Clock xmlns:dt=""urn:schemas-microsoft-com:datatypes""><Description dt:dt=""string"">E-Prime Primary Realtime Clock</Description><StartTime><Timestamp dt:dt=""int"">0</Timestamp><DateUtc dt:dt=""string"">2022-12-10T08:40:53Z</DateUtc></StartTime><FrequencyChanges><FrequencyChange><Frequency dt:dt=""r8"">10000000</Frequency><Timestamp dt:dt=""r8"">2686620506179</Timestamp><Current dt:dt=""r8"">0</Current><DateUtc dt:dt=""string"">2022-12-10T08:40:53Z</DateUtc></FrequencyChange></FrequencyChanges></Clock>\n",Wisconsin-1139-4,60.013,1.0.0.248,1,-2026397074,3.0.3.80,3.0.3.80,12-10-2022,12/10/2022 8:40:53 AM,16:40:53,3.0.3.82,2,,,,,,,BlockProc2,List2,1,,,,,,,,,,,,,,,,,2.0,1.0,1.0,1.0,1.0,1.0,,,,ColorProc2,List4,,,,,,,,,4.0,BUTTON1.png,BUTTON2.PNG,BUTTON3.png,BUTTON4.png,Redcircle2.png,,,,7.0,1.0,4.0,{Button3},0.0,,,,,,,0.0,TrialProc,ColorList2,,,,,,,0.0,{Button3},11.0,33.0,92782.0,0.0,{Button1},2668.0,color
Wisconsin,1139,4,"<?xml version=""1.0""?>\n<Clock xmlns:dt=""urn:schemas-microsoft-com:datatypes""><Description dt:dt=""string"">E-Prime Primary Realtime Clock</Description><StartTime><Timestamp dt:dt=""int"">0</Timestamp><DateUtc dt:dt=""string"">2022-12-10T08:40:53Z</DateUtc></StartTime><FrequencyChanges><FrequencyChange><Frequency dt:dt=""r8"">10000000</Frequency><Timestamp dt:dt=""r8"">2686620506179</Timestamp><Current dt:dt=""r8"">0</Current><DateUtc dt:dt=""string"">2022-12-10T08:40:53Z</DateUtc></FrequencyChange></FrequencyChanges></Clock>\n",Wisconsin-1139-4,60.013,1.0.0.248,1,-2026397074,3.0.3.80,3.0.3.80,12-10-2022,12/10/2022 8:40:53 AM,16:40:53,3.0.3.82,2,,,,,,,BlockProc2,List2,1,,,,,,,,,,,,,,,,,2.0,1.0,1.0,1.0,1.0,1.0,,,,ColorProc2,List4,,,,,,,,,5.0,BUTTON1.png,BUTTON2.PNG,BUTTON3.png,BUTTON4.png,redstar4.png,,,,8.0,1.0,5.0,{Button3},0.0,,,,,,,0.0,TrialProc,ColorList2,,,,,,,0.0,{Button3},9.0,33.0,98031.0,0.0,{Button2},747.0,color
Wisconsin,1139,4,"<?xml version=""1.0""?>\n<Clock xmlns:dt=""urn:schemas-microsoft-com:datatypes""><Description dt:dt=""string"">E-Prime Primary Realtime Clock</Description><StartTime><Timestamp dt:dt=""int"">0</Timestamp><DateUtc dt:dt=""string"">2022-12-10T08:40:53Z</DateUtc></StartTime><FrequencyChanges><FrequencyChange><Frequency dt:dt=""r8"">10000000</Frequency><Timestamp dt:dt=""r8"">2686620506179</Timestamp><Current dt:dt=""r8"">0</Current><DateUtc dt:dt=""string"">2022-12-10T08:40:53Z</DateUtc></FrequencyChange></FrequencyChanges></Clock>\n",Wisconsin-1139-4,60.013,1.0.0.248,1,-2026397074,3.0.3.80,3.0.3.80,12-10-2022,12/10/2022 8:40:53 AM,16:40:53,3.0.3.82,2,,,,,,,BlockProc2,List2,1,,,,,,,,,,,,,,,,,2.0,1.0,1.0,1.0,1.0,1.0,,,,ColorProc2,List4,,,,,,,,,6.0,BUTTON1.png,BUTTON2.PNG,BUTTON3.png,BUTTON4.png,greencross4.png,,,,4.0,1.0,6.0,{Button1},0.0,,,,,,,0.0,TrialProc,ColorList2,,,,,,,1.0,{Button1},10.0,33.0,101363.0,0.0,{Button1},1199.0,color
Wisconsin,1139,4,"<?xml version=""1.0""?>\n<Clock xmlns:dt=""urn:schemas-microsoft-com:datatypes""><Description dt:dt=""string"">E-Prime Primary Realtime Clock</Description><StartTime><Timestamp dt:dt=""int"">0</Timestamp><DateUtc dt:dt=""string"">2022-12-10T08:40:53Z</DateUtc></StartTime><FrequencyChanges><FrequencyChange><Frequency dt:dt=""r8"">10000000</Frequency><Timestamp dt:dt=""r8"">2686620506179</Timestamp><Current dt:dt=""r8"">0</Current><DateUtc dt:dt=""string"">2022-12-10T08:40:53Z</DateUtc></FrequencyChange></FrequencyChanges></Clock>\n",Wisconsin-1139-4,60.013,1.0.0.248,1,-2026397074,3.0.3.80,3.0.3.80,12-10-2022,12/10/2022 8:40:53 AM,16:40:53,3.0.3.82,2,,,,,,,BlockProc2,List2,1,,,,,,,,,,,,,,,,,2.0,1.0,1.0,1.0,1.0,1.0,,,,ColorProc2,List4,,,,,,,,,7.0,BUTTON1.png,BUTTON2.PNG,BUTTON3.png,BUTTON4.png,greentriangle2.png,,,,6.0,1.0,7.0,{Button1},0.0,,,,,,,0.0,TrialProc,ColorList2,,,,,,,1.0,{Button1},10.0,33.0,105146.0,0.0,{Button1},912.0,color
Wisconsin,1139,4,"<?xml version=""1.0""?>\n<Clock xmlns:dt=""urn:schemas-microsoft-com:datatypes""><Description dt:dt=""string"">E-Prime Primary Realtime Clock</Description><StartTime><Timestamp dt:dt=""int"">0</Timestamp><DateUtc dt:dt=""string"">2022-12-10T08:40:53Z</DateUtc></StartTime><FrequencyChanges><FrequencyChange><Frequency dt:dt=""r8"">10000000</Frequency><Timestamp dt:dt=""r8"">2686620506179</Timestamp><Current dt:dt=""r8"">0</Current><DateUtc dt:dt=""string"">2022-12-10T08:40:53Z</DateUtc></FrequencyChange></FrequencyChanges></Clock>\n",Wisconsin-1139-4,60.013,1.0.0.248,1,-2026397074,3.0.3.80,3.0.3.80,12-10-2022,12/10/2022 8:40:53 AM,16:40:53,3.0.3.82,2,,,,,,,BlockProc2,List2,1,,,,,,,,,,,,,,,,,2.0,1.0,1.0,1.0,1.0,1.0,,,,ColorProc2,List4,,,,,,,,,8.0,BUTTON1.png,BUTTON2.PNG,BUTTON3.png,BUTTON4.png,bluecross1.png,,,,1.0,1.0,8.0,{Button4},0.0,,,,,,,0.0,TrialProc,ColorList2,,,,,,,1.0,{Button4},10.0,33.0,108645.0,0.0,{Button4},1093.0,color
Wisconsin,1139,4,"<?xml version=""1.0""?>\n<Clock xmlns:dt=""urn:schemas-microsoft-com:datatypes""><Description dt:dt=""string"">E-Prime Primary Realtime Clock</Description><StartTime><Timestamp dt:dt=""int"">0</Timestamp><DateUtc dt:dt=""string"">2022-12-10T08:40:53Z</DateUtc></StartTime><FrequencyChanges><FrequencyChange><Frequency dt:dt=""r8"">10000000</Frequency><Timestamp dt:dt=""r8"">2686620506179</Timestamp><Current dt:dt=""r8"">0</Current><DateUtc dt:dt=""string"">2022-12-10T08:40:53Z</DateUtc></FrequencyChange></FrequencyChanges></Clock>\n",Wisconsin-1139-4,60.013,1.0.0.248,1,-2026397074,3.0.3.80,3.0.3.80,12-10-2022,12/10/2022 8:40:53 AM,16:40:53,3.0.3.82,2,,,,,,,BlockProc2,List2,1,,,,,,,,,,,,,,,,,2.0,1.0,1.0,1.0,1.0,1.0,,,,ColorProc2,List4,,,,,,,,,9.0,BUTTON1.png,BUTTON2.PNG,BUTTON3.png,BUTTON4.png,greenstar4.png,,,,5.0,1.0,9.0,{Button1},0.0,,,,,,,0.0,TrialProc,ColorList2,,,,,,,1.0,{Button1},10.0,33.0,112311.0,0.0,{Button1},1779.0,color
Wisconsin,1139,4,"<?xml version=""1.0""?>\n<Clock xmlns:dt=""urn:schemas-microsoft-com:datatypes""><Description dt:dt=""string"">E-Prime Primary Realtime Clock</Description><StartTime><Timestamp dt:dt=""int"">0</Timestamp><DateUtc dt:dt=""string"">2022-12-10T08:40:53Z</DateUtc></StartTime><FrequencyChanges><FrequencyChange><Frequency dt:dt=""r8"">10000000</Frequency><Timestamp dt:dt=""r8"">2686620506179</Timestamp><Current dt:dt=""r8"">0</Current><DateUtc dt:dt=""string"">2022-12-10T08:40:53Z</DateUtc></FrequencyChange></FrequencyChanges></Clock>\n",Wisconsin-1139-4,60.013,1.0.0.248,1,-2026397074,3.0.3.80,3.0.3.80,12-10-2022,12/10/2022 8:40:53 AM,16:40:53,3.0.3.82,2,,,,,,,BlockProc2,List2,1,,,,,,,,,,,,,,,,,2.0,1.0,1.0,1.0,1.0,1.0,,,,ColorProc2,List4,,,,,,,,,10.0,BUTTON1.png,BUTTON2.PNG,BUTTON3.png,BUTTON4.png,yellowcircle2.png,,,,9.0,1.0,10.0,{Button2},0.0,,,,,,,0.0,TrialProc,ColorList2,,,,,,,1.0,{Button2},10.0,33.0,116676.0,0.0,{Button2},806.0,color
Wisconsin,1139,4,"<?xml version=""1.0""?>\n<Clock xmlns:dt=""urn:schemas-microsoft-com:datatypes""><Description dt:dt=""string"">E-Prime Primary Realtime Clock</Description><StartTime><Timestamp dt:dt=""int"">0</Timestamp><DateUtc dt:dt=""string"">2022-12-10T08:40:53Z</DateUtc></StartTime><FrequencyChanges><FrequencyChange><Frequency dt:dt=""r8"">10000000</Frequency><Timestamp dt:dt=""r8"">2686620506179</Timestamp><Current dt:dt=""r8"">0</Current><DateUtc dt:dt=""string"">2022-12-10T08:40:53Z</DateUtc></FrequencyChange></FrequencyChanges></Clock>\n",Wisconsin-1139-4,60.013,1.0.0.248,1,-2026397074,3.0.3.80,3.0.3.80,12-10-2022,12/10/2022 8:40:53 AM,16:40:53,3.0.3.82,2,,,,,,,BlockProc2,List2,2,,,,,,,,,,,,,,,,,2.0,1.0,1.0,2.0,1.0,2.0,,,,ShapeProc2,List4,,,,,,,,,1.0,Button1.png,Button2.png,Button3.png,Button4.png,Yellowtriangle1.png,,,,,,,{button2},0.0,,,,,,,0.0,TrialProc,ShapeList2,,,,10.0,1.0,1.0,1.0,{button2},9.0,33.0,120059.0,0.0,{Button2},671.0,Shape
Wisconsin,1139,4,"<?xml version=""1.0""?>\n<Clock xmlns:dt=""urn:schemas-microsoft-com:datatypes""><Description dt:dt=""string"">E-Prime Primary Realtime Clock</Description><StartTime><Timestamp dt:dt=""int"">0</Timestamp><DateUtc dt:dt=""string"">2022-12-10T08:40:53Z</DateUtc></StartTime><FrequencyChanges><FrequencyChange><Frequency dt:dt=""r8"">10000000</Frequency><Timestamp dt:dt=""r8"">2686620506179</Timestamp><Current dt:dt=""r8"">0</Current><DateUtc dt:dt=""string"">2022-12-10T08:40:53Z</DateUtc></FrequencyChange></FrequencyChanges></Clock>\n",Wisconsin-1139-4,60.013,1.0.0.248,1,-2026397074,3.0.3.80,3.0.3.80,12-10-2022,12/10/2022 8:40:53 AM,16:40:53,3.0.3.82,2,,,,,,,BlockProc2,List2,2,,,,,,,,,,,,,,,,,2.0,1.0,1.0,2.0,1.0,2.0,,,,ShapeProc2,List4,,,,,,,,,2.0,Button1.png,Button2.png,Button3.png,Button4.png,Bluetriangle2.png,,,,,,,{button2},0.0,,,,,,,0.0,TrialProc,ShapeList2,,,,2.0,1.0,2.0,0.0,{button2},9.0,50.0,123325.0,0.0,{Button4},1917.0,Shape
Wisconsin,1139,4,"<?xml version=""1.0""?>\n<Clock xmlns:dt=""urn:schemas-microsoft-com:datatypes""><Description dt:dt=""string"">E-Prime Primary Realtime Clock</Description><StartTime><Timestamp dt:dt=""int"">0</Timestamp><DateUtc dt:dt=""string"">2022-12-10T08:40:53Z</DateUtc></StartTime><FrequencyChanges><FrequencyChange><Frequency dt:dt=""r8"">10000000</Frequency><Timestamp dt:dt=""r8"">2686620506179</Timestamp><Current dt:dt=""r8"">0</Current><DateUtc dt:dt=""string"">2022-12-10T08:40:53Z</DateUtc></FrequencyChange></FrequencyChanges></Clock>\n",Wisconsin-1139-4,60.013,1.0.0.248,1,-2026397074,3.0.3.80,3.0.3.80,12-10-2022,12/10/2022 8:40:53 AM,16:40:53,3.0.3.82,2,,,,,,,BlockProc2,List2,2,,,,,,,,,,,,,,,,,2.0,1.0,1.0,2.0,1.0,2.0,,,,ShapeProc2,List4,,,,,,,,,3.0,Button1.png,Button2.png,Button3.png,Button4.png,Bluecircle3.png,,,,,,,{button1},0.0,,,,,,,0.0,TrialProc,ShapeList2,,,,1.0,1.0,3.0,1.0,{button1},8.0,34.0,127824.0,0.0,{Button1},1066.0,Shape
Wisconsin,1139,4,"<?xml version=""1.0""?>\n<Clock xmlns:dt=""urn:schemas-microsoft-com:datatypes""><Description dt:dt=""string"">E-Prime Primary Realtime Clock</Description><StartTime><Timestamp dt:dt=""int"">0</Timestamp><DateUtc dt:dt=""string"">2022-12-10T08:40:53Z</DateUtc></StartTime><FrequencyChanges><FrequencyChange><Frequency dt:dt=""r8"">10000000</Frequency><Timestamp dt:dt=""r8"">2686620506179</Timestamp><Current dt:dt=""r8"">0</Current><DateUtc dt:dt=""string"">2022-12-10T08:40:53Z</DateUtc></FrequencyChange></FrequencyChanges></Clock>\n",Wisconsin-1139-4,60.013,1.0.0.248,1,-2026397074,3.0.3.80,3.0.3.80,12-10-2022,12/10/2022 8:40:53 AM,16:40:53,3.0.3.82,2,,,,,,,BlockProc2,List2,2,,,,,,,,,,,,,,,,,2.0,1.0,1.0,2.0,1.0,2.0,,,,ShapeProc2,List4,,,,,,,,,4.0,Button1.png,Button2.png,Button3.png,Button4.png,yellowcross4.png,,,,,,,{button3},0.0,,,,,,,0.0,TrialProc,ShapeList2,,,,8.0,1.0,4.0,1.0,{button3},16.0,66.0,131489.0,0.0,{Button3},2041.0,Shape
Wisconsin,1139,4,"<?xml version=""1.0""?>\n<Clock xmlns:dt=""urn:schemas-microsoft-com:datatypes""><Description dt:dt=""string"">E-Prime Primary Realtime Clock</Description><StartTime><Timestamp dt:dt=""int"">0</Timestamp><DateUtc dt:dt=""string"">2022-12-10T08:40:53Z</DateUtc></StartTime><FrequencyChanges><FrequencyChange><Frequency dt:dt=""r8"">10000000</Frequency><Timestamp dt:dt=""r8"">2686620506179</Timestamp><Current dt:dt=""r8"">0</Current><DateUtc dt:dt=""string"">2022-12-10T08:40:53Z</DateUtc></FrequencyChange></FrequencyChanges></Clock>\n",Wisconsin-1139-4,60.013,1.0.0.248,1,-2026397074,3.0.3.80,3.0.3.80,12-10-2022,12/10/2022 8:40:53 AM,16:40:53,3.0.3.82,2,,,,,,,BlockProc2,List2,2,,,,,,,,,,,,,,,,,2.0,1.0,1.0,2.0,1.0,2.0,,,,ShapeProc2,List4,,,,,,,,,5.0,Button1.png,Button2.png,Button3.png,Button4.png,Redtriangle3.png,,,,,,,{button2},0.0,,,,,,,0.0,TrialProc,ShapeList2,,,,7.0,1.0,5.0,1.0,{button2},9.0,33.0,136105.0,0.0,{Button2},737.0,Shape
Wisconsin,1139,4,"<?xml version=""1.0""?>\n<Clock xmlns:dt=""urn:schemas-microsoft-com:datatypes""><Description dt:dt=""string"">E-Prime Primary Realtime Clock</Description><StartTime><Timestamp dt:dt=""int"">0</Timestamp><DateUtc dt:dt=""string"">2022-12-10T08:40:53Z</DateUtc></StartTime><FrequencyChanges><FrequencyChange><Frequency dt:dt=""r8"">10000000</Frequency><Timestamp dt:dt=""r8"">2686620506179</Timestamp><Current dt:dt=""r8"">0</Current><DateUtc dt:dt=""string"">2022-12-10T08:40:53Z</DateUtc></FrequencyChange></FrequencyChanges></Clock>\n",Wisconsin-1139-4,60.013,1.0.0.248,1,-2026397074,3.0.3.80,3.0.3.80,12-10-2022,12/10/2022 8:40:53 AM,16:40:53,3.0.3.82,2,,,,,,,BlockProc2,List2,2,,,,,,,,,,,,,,,,,2.0,1.0,1.0,2.0,1.0,2.0,,,,ShapeProc2,List4,,,,,,,,,6.0,Button1.png,Button2.png,Button3.png,Button4.png,Yellowstar2.png,,,,,,,{button4},0.0,,,,,,,0.0,TrialProc,ShapeList2,,,,9.0,1.0,6.0,1.0,{button4},9.0,33.0,139421.0,0.0,{Button4},1333.0,Shape
Wisconsin,1139,4,"<?xml version=""1.0""?>\n<Clock xmlns:dt=""urn:schemas-microsoft-com:datatypes""><Description dt:dt=""string"">E-Prime Primary Realtime Clock</Description><StartTime><Timestamp dt:dt=""int"">0</Timestamp><DateUtc dt:dt=""string"">2022-12-10T08:40:53Z</DateUtc></StartTime><FrequencyChanges><FrequencyChange><Frequency dt:dt=""r8"">10000000</Frequency><Timestamp dt:dt=""r8"">2686620506179</Timestamp><Current dt:dt=""r8"">0</Current><DateUtc dt:dt=""string"">2022-12-10T08:40:53Z</DateUtc></FrequencyChange></FrequencyChanges></Clock>\n",Wisconsin-1139-4,60.013,1.0.0.248,1,-2026397074,3.0.3.80,3.0.3.80,12-10-2022,12/10/2022 8:40:53 AM,16:40:53,3.0.3.82,2,,,,,,,BlockProc2,List2,2,,,,,,,,,,,,,,,,,2.0,1.0,1.0,2.0,1.0,2.0,,,,ShapeProc2,List4,,,,,,,,,7.0,Button1.png,Button2.png,Button3.png,Button4.png,Greenstar3.png,,,,,,,{button4},0.0,,,,,,,0.0,TrialProc,ShapeList2,,,,3.0,1.0,7.0,1.0,{button4},2.0,50.0,143353.0,0.0,{Button4},1457.0,Shape
Wisconsin,1139,4,"<?xml version=""1.0""?>\n<Clock xmlns:dt=""urn:schemas-microsoft-com:datatypes""><Description dt:dt=""string"">E-Prime Primary Realtime Clock</Description><StartTime><Timestamp dt:dt=""int"">0</Timestamp><DateUtc dt:dt=""string"">2022-12-10T08:40:53Z</DateUtc></StartTime><FrequencyChanges><FrequencyChange><Frequency dt:dt=""r8"">10000000</Frequency><Timestamp dt:dt=""r8"">2686620506179</Timestamp><Current dt:dt=""r8"">0</Current><DateUtc dt:dt=""string"">2022-12-10T08:40:53Z</DateUtc></FrequencyChange></FrequencyChanges></Clock>\n",Wisconsin-1139-4,60.013,1.0.0.248,1,-2026397074,3.0.3.80,3.0.3.80,12-10-2022,12/10/2022 8:40:53 AM,16:40:53,3.0.3.82,2,,,,,,,BlockProc2,List2,2,,,,,,,,,,,,,,,,,2.0,1.0,1.0,2.0,1.0,2.0,,,,ShapeProc2,List4,,,,,,,,,8.0,Button1.png,Button2.png,Button3.png,Button4.png,Redstar3.png,,,,,,,{button4},0.0,,,,,,,0.0,TrialProc,ShapeList2,,,,6.0,1.0,8.0,0.0,{button4},10.0,33.0,147385.0,0.0,{Button3},1489.0,Shape
Wisconsin,1139,4,"<?xml version=""1.0""?>\n<Clock xmlns:dt=""urn:schemas-microsoft-com:datatypes""><Description dt:dt=""string"">E-Prime Primary Realtime Clock</Description><StartTime><Timestamp dt:dt=""int"">0</Timestamp><DateUtc dt:dt=""string"">2022-12-10T08:40:53Z</DateUtc></StartTime><FrequencyChanges><FrequencyChange><Frequency dt:dt=""r8"">10000000</Frequency><Timestamp dt:dt=""r8"">2686620506179</Timestamp><Current dt:dt=""r8"">0</Current><DateUtc dt:dt=""string"">2022-12-10T08:40:53Z</DateUtc></FrequencyChange></FrequencyChanges></Clock>\n",Wisconsin-1139-4,60.013,1.0.0.248,1,-2026397074,3.0.3.80,3.0.3.80,12-10-2022,12/10/2022 8:40:53 AM,16:40:53,3.0.3.82,2,,,,,,,BlockProc2,List2,2,,,,,,,,,,,,,,,,,2.0,1.0,1.0,2.0,1.0,2.0,,,,ShapeProc2,List4,,,,,,,,,9.0,Button1.png,Button2.png,Button3.png,Button4.png,redcircle1.png,,,,,,,{button1},0.0,,,,,,,0.0,TrialProc,ShapeList2,,,,4.0,1.0,9.0,1.0,{button1},1.0,50.0,151468.0,0.0,{Button1},886.0,Shape
Wisconsin,1139,4,"<?xml version=""1.0""?>\n<Clock xmlns:dt=""urn:schemas-microsoft-com:datatypes""><Description dt:dt=""string"">E-Prime Primary Realtime Clock</Description><StartTime><Timestamp dt:dt=""int"">0</Timestamp><DateUtc dt:dt=""string"">2022-12-10T08:40:53Z</DateUtc></StartTime><FrequencyChanges><FrequencyChange><Frequency dt:dt=""r8"">10000000</Frequency><Timestamp dt:dt=""r8"">2686620506179</Timestamp><Current dt:dt=""r8"">0</Current><DateUtc dt:dt=""string"">2022-12-10T08:40:53Z</DateUtc></FrequencyChange></FrequencyChanges></Clock>\n",Wisconsin-1139-4,60.013,1.0.0.248,1,-2026397074,3.0.3.80,3.0.3.80,12-10-2022,12/10/2022 8:40:53 AM,16:40:53,3.0.3.82,2,,,,,,,BlockProc2,List2,2,,,,,,,,,,,,,,,,,2.0,1.0,1.0,2.0,1.0,2.0,,,,ShapeProc2,List4,,,,,,,,,10.0,Button1.png,Button2.png,Button3.png,Button4.png,Redcross2.png,,,,,,,{button3},0.0,,,,,,,0.0,TrialProc,ShapeList2,,,,5.0,1.0,10.0,1.0,{button3},9.0,33.0,154934.0,0.0,{Button3},1588.0,Shape
Wisconsin,1139,4,"<?xml version=""1.0""?>\n<Clock xmlns:dt=""urn:schemas-microsoft-com:datatypes""><Description dt:dt=""string"">E-Prime Primary Realtime Clock</Description><StartTime><Timestamp dt:dt=""int"">0</Timestamp><DateUtc dt:dt=""string"">2022-12-10T08:40:53Z</DateUtc></StartTime><FrequencyChanges><FrequencyChange><Frequency dt:dt=""r8"">10000000</Frequency><Timestamp dt:dt=""r8"">2686620506179</Timestamp><Current dt:dt=""r8"">0</Current><DateUtc dt:dt=""string"">2022-12-10T08:40:53Z</DateUtc></FrequencyChange></FrequencyChanges></Clock>\n",Wisconsin-1139-4,60.013,1.0.0.248,1,-2026397074,3.0.3.80,3.0.3.80,12-10-2022,12/10/2022 8:40:53 AM,16:40:53,3.0.3.82,2,,,,,,,BlockProc2,List2,3,,,,,,,,,,,,,,,,,2.0,1.0,1.0,3.0,1.0,3.0,,,,NumberProc2,List4,,,,,,,,,1.0,Button1.png,Button2.png,Button3.png,Button4.png,Bluecross3.png,,,,,,,{button3},0.0,,,,1.0,1.0,1.0,0.0,TrialProc,NumberList2,,,,,,,0.0,{button3},9.0,33.0,159099.0,0.0,{Button4},1559.0,number
Wisconsin,1139,4,"<?xml version=""1.0""?>\n<Clock xmlns:dt=""urn:schemas-microsoft-com:datatypes""><Description dt:dt=""string"">E-Prime Primary Realtime Clock</Description><StartTime><Timestamp dt:dt=""int"">0</Timestamp><DateUtc dt:dt=""string"">2022-12-10T08:40:53Z</DateUtc></StartTime><FrequencyChanges><FrequencyChange><Frequency dt:dt=""r8"">10000000</Frequency><Timestamp dt:dt=""r8"">2686620506179</Timestamp><Current dt:dt=""r8"">0</Current><DateUtc dt:dt=""string"">2022-12-10T08:40:53Z</DateUtc></FrequencyChange></FrequencyChanges></Clock>\n",Wisconsin-1139-4,60.013,1.0.0.248,1,-2026397074,3.0.3.80,3.0.3.80,12-10-2022,12/10/2022 8:40:53 AM,16:40:53,3.0.3.82,2,,,,,,,BlockProc2,List2,3,,,,,,,,,,,,,,,,,2.0,1.0,1.0,3.0,1.0,3.0,,,,NumberProc2,List4,,,,,,,,,2.0,Button1.png,Button2.png,Button3.png,Button4.png,Bluestar4.png,,,,,,,{button2},0.0,,,,2.0,1.0,2.0,0.0,TrialProc,NumberList2,,,,,,,1.0,{button2},11.0,33.0,163248.0,0.0,{Button2},658.0,number
Wisconsin,1139,4,"<?xml version=""1.0""?>\n<Clock xmlns:dt=""urn:schemas-microsoft-com:datatypes""><Description dt:dt=""string"">E-Prime Primary Realtime Clock</Description><StartTime><Timestamp dt:dt=""int"">0</Timestamp><DateUtc dt:dt=""string"">2022-12-10T08:40:53Z</DateUtc></StartTime><FrequencyChanges><FrequencyChange><Frequency dt:dt=""r8"">10000000</Frequency><Timestamp dt:dt=""r8"">2686620506179</Timestamp><Current dt:dt=""r8"">0</Current><DateUtc dt:dt=""string"">2022-12-10T08:40:53Z</DateUtc></FrequencyChange></FrequencyChanges></Clock>\n",Wisconsin-1139-4,60.013,1.0.0.248,1,-2026397074,3.0.3.80,3.0.3.80,12-10-2022,12/10/2022 8:40:53 AM,16:40:53,3.0.3.82,2,,,,,,,BlockProc2,List2,3,,,,,,,,,,,,,,,,,2.0,1.0,1.0,3.0,1.0,3.0,,,,NumberProc2,List4,,,,,,,,,3.0,Button1.png,Button2.png,Button3.png,Button4.png,Bluetriangle4.png,,,,,,,{button2},0.0,,,,3.0,1.0,3.0,0.0,TrialProc,NumberList2,,,,,,,1.0,{button2},9.0,33.0,166481.0,0.0,{Button2},617.0,number
Wisconsin,1139,4,"<?xml version=""1.0""?>\n<Clock xmlns:dt=""urn:schemas-microsoft-com:datatypes""><Description dt:dt=""string"">E-Prime Primary Realtime Clock</Description><StartTime><Timestamp dt:dt=""int"">0</Timestamp><DateUtc dt:dt=""string"">2022-12-10T08:40:53Z</DateUtc></StartTime><FrequencyChanges><FrequencyChange><Frequency dt:dt=""r8"">10000000</Frequency><Timestamp dt:dt=""r8"">2686620506179</Timestamp><Current dt:dt=""r8"">0</Current><DateUtc dt:dt=""string"">2022-12-10T08:40:53Z</DateUtc></FrequencyChange></FrequencyChanges></Clock>\n",Wisconsin-1139-4,60.013,1.0.0.248,1,-2026397074,3.0.3.80,3.0.3.80,12-10-2022,12/10/2022 8:40:53 AM,16:40:53,3.0.3.82,2,,,,,,,BlockProc2,List2,3,,,,,,,,,,,,,,,,,2.0,1.0,1.0,3.0,1.0,3.0,,,,NumberProc2,List4,,,,,,,,,4.0,Button1.png,Button2.png,Button3.png,Button4.png,Greencross2.png,,,,,,,{button1},0.0,,,,4.0,1.0,4.0,0.0,TrialProc,NumberList2,,,,,,,1.0,{button1},10.0,33.0,169663.0,0.0,{Button1},1195.0,number
Wisconsin,1139,4,"<?xml version=""1.0""?>\n<Clock xmlns:dt=""urn:schemas-microsoft-com:datatypes""><Description dt:dt=""string"">E-Prime Primary Realtime Clock</Description><StartTime><Timestamp dt:dt=""int"">0</Timestamp><DateUtc dt:dt=""string"">2022-12-10T08:40:53Z</DateUtc></StartTime><FrequencyChanges><FrequencyChange><Frequency dt:dt=""r8"">10000000</Frequency><Timestamp dt:dt=""r8"">2686620506179</Timestamp><Current dt:dt=""r8"">0</Current><DateUtc dt:dt=""string"">2022-12-10T08:40:53Z</DateUtc></FrequencyChange></FrequencyChanges></Clock>\n",Wisconsin-1139-4,60.013,1.0.0.248,1,-2026397074,3.0.3.80,3.0.3.80,12-10-2022,12/10/2022 8:40:53 AM,16:40:53,3.0.3.82,2,,,,,,,BlockProc2,List2,3,,,,,,,,,,,,,,,,,2.0,1.0,1.0,3.0,1.0,3.0,,,,NumberProc2,List4,,,,,,,,,5.0,Button1.png,Button2.png,Button3.png,Button4.png,Greenstar1.png,,,,,,,{button4},0.0,,,,5.0,1.0,5.0,0.0,TrialProc,NumberList2,,,,,,,0.0,{button4},9.0,33.0,173446.0,0.0,{Button1},1372.0,number
Wisconsin,1139,4,"<?xml version=""1.0""?>\n<Clock xmlns:dt=""urn:schemas-microsoft-com:datatypes""><Description dt:dt=""string"">E-Prime Primary Realtime Clock</Description><StartTime><Timestamp dt:dt=""int"">0</Timestamp><DateUtc dt:dt=""string"">2022-12-10T08:40:53Z</DateUtc></StartTime><FrequencyChanges><FrequencyChange><Frequency dt:dt=""r8"">10000000</Frequency><Timestamp dt:dt=""r8"">2686620506179</Timestamp><Current dt:dt=""r8"">0</Current><DateUtc dt:dt=""string"">2022-12-10T08:40:53Z</DateUtc></FrequencyChange></FrequencyChanges></Clock>\n",Wisconsin-1139-4,60.013,1.0.0.248,1,-2026397074,3.0.3.80,3.0.3.80,12-10-2022,12/10/2022 8:40:53 AM,16:40:53,3.0.3.82,2,,,,,,,BlockProc2,List2,3,,,,,,,,,,,,,,,,,2.0,1.0,1.0,3.0,1.0,3.0,,,,NumberProc2,List4,,,,,,,,,6.0,Button1.png,Button2.png,Button3.png,Button4.png,Redstar1.png,,,,,,,{button4},0.0,,,,6.0,1.0,6.0,0.0,TrialProc,NumberList2,,,,,,,1.0,{button4},9.0,33.0,177395.0,0.0,{Button4},1303.0,number
Wisconsin,1139,4,"<?xml version=""1.0""?>\n<Clock xmlns:dt=""urn:schemas-microsoft-com:datatypes""><Description dt:dt=""string"">E-Prime Primary Realtime Clock</Description><StartTime><Timestamp dt:dt=""int"">0</Timestamp><DateUtc dt:dt=""string"">2022-12-10T08:40:53Z</DateUtc></StartTime><FrequencyChanges><FrequencyChange><Frequency dt:dt=""r8"">10000000</Frequency><Timestamp dt:dt=""r8"">2686620506179</Timestamp><Current dt:dt=""r8"">0</Current><DateUtc dt:dt=""string"">2022-12-10T08:40:53Z</DateUtc></FrequencyChange></FrequencyChanges></Clock>\n",Wisconsin-1139-4,60.013,1.0.0.248,1,-2026397074,3.0.3.80,3.0.3.80,12-10-2022,12/10/2022 8:40:53 AM,16:40:53,3.0.3.82,2,,,,,,,BlockProc2,List2,3,,,,,,,,,,,,,,,,,2.0,1.0,1.0,3.0,1.0,3.0,,,,NumberProc2,List4,,,,,,,,,7.0,Button1.png,Button2.png,Button3.png,Button4.png,Redtriangle2.png,,,,,,,{button1},0.0,,,,7.0,1.0,7.0,0.0,TrialProc,NumberList2,,,,,,,0.0,{button1},10.0,33.0,181277.0,0.0,{Button2},1653.0,number
Wisconsin,1139,4,"<?xml version=""1.0""?>\n<Clock xmlns:dt=""urn:schemas-microsoft-com:datatypes""><Description dt:dt=""string"">E-Prime Primary Realtime Clock</Description><StartTime><Timestamp dt:dt=""int"">0</Timestamp><DateUtc dt:dt=""string"">2022-12-10T08:40:53Z</DateUtc></StartTime><FrequencyChanges><FrequencyChange><Frequency dt:dt=""r8"">10000000</Frequency><Timestamp dt:dt=""r8"">2686620506179</Timestamp><Current dt:dt=""r8"">0</Current><DateUtc dt:dt=""string"">2022-12-10T08:40:53Z</DateUtc></FrequencyChange></FrequencyChanges></Clock>\n",Wisconsin-1139-4,60.013,1.0.0.248,1,-2026397074,3.0.3.80,3.0.3.80,12-10-2022,12/10/2022 8:40:53 AM,16:40:53,3.0.3.82,2,,,,,,,BlockProc2,List2,3,,,,,,,,,,,,,,,,,2.0,1.0,1.0,3.0,1.0,3.0,,,,NumberProc2,List4,,,,,,,,,8.0,Button1.png,Button2.png,Button3.png,Button4.png,yellowcircle4.png,,,,,,,{button2},0.0,,,,8.0,1.0,8.0,0.0,TrialProc,NumberList2,,,,,,,1.0,{button2},10.0,33.0,185509.0,0.0,{Button2},589.0,number
Wisconsin,1139,4,"<?xml version=""1.0""?>\n<Clock xmlns:dt=""urn:schemas-microsoft-com:datatypes""><Description dt:dt=""string"">E-Prime Primary Realtime Clock</Description><StartTime><Timestamp dt:dt=""int"">0</Timestamp><DateUtc dt:dt=""string"">2022-12-10T08:40:53Z</DateUtc></StartTime><FrequencyChanges><FrequencyChange><Frequency dt:dt=""r8"">10000000</Frequency><Timestamp dt:dt=""r8"">2686620506179</Timestamp><Current dt:dt=""r8"">0</Current><DateUtc dt:dt=""string"">2022-12-10T08:40:53Z</DateUtc></FrequencyChange></FrequencyChanges></Clock>\n",Wisconsin-1139-4,60.013,1.0.0.248,1,-2026397074,3.0.3.80,3.0.3.80,12-10-2022,12/10/2022 8:40:53 AM,16:40:53,3.0.3.82,2,,,,,,,BlockProc2,List2,3,,,,,,,,,,,,,,,,,2.0,1.0,1.0,3.0,1.0,3.0,,,,NumberProc2,List4,,,,,,,,,9.0,Button1.png,Button2.png,Button3.png,Button4.png,Yellowcross2.png,,,,,,,{button1},0.0,,,,9.0,1.0,9.0,0.0,TrialProc,NumberList2,,,,,,,0.0,{button1},10.0,33.0,188675.0,0.0,{Button3},967.0,number
Wisconsin,1139,4,"<?xml version=""1.0""?>\n<Clock xmlns:dt=""urn:schemas-microsoft-com:datatypes""><Description dt:dt=""string"">E-Prime Primary Realtime Clock</Description><StartTime><Timestamp dt:dt=""int"">0</Timestamp><DateUtc dt:dt=""string"">2022-12-10T08:40:53Z</DateUtc></StartTime><FrequencyChanges><FrequencyChange><Frequency dt:dt=""r8"">10000000</Frequency><Timestamp dt:dt=""r8"">2686620506179</Timestamp><Current dt:dt=""r8"">0</Current><DateUtc dt:dt=""string"">2022-12-10T08:40:53Z</DateUtc></FrequencyChange></FrequencyChanges></Clock>\n",Wisconsin-1139-4,60.013,1.0.0.248,1,-2026397074,3.0.3.80,3.0.3.80,12-10-2022,12/10/2022 8:40:53 AM,16:40:53,3.0.3.82,2,,,,,,,BlockProc2,List2,3,,,,,,,,,,,,,,,,,2.0,1.0,1.0,3.0,1.0,3.0,,,,NumberProc2,List4,,,,,,,,,10.0,Button1.png,Button2.png,Button3.png,Button4.png,Yellowtriangle2.png,,,,,,,{button3},0.0,,,,10.0,1.0,10.0,0.0,TrialProc,NumberList2,,,,,,,0.0,{button3},10.0,33.0,192224.0,0.0,{Button2},634.0,number
Wisconsin,1139,4,"<?xml version=""1.0""?>\n<Clock xmlns:dt=""urn:schemas-microsoft-com:datatypes""><Description dt:dt=""string"">E-Prime Primary Realtime Clock</Description><StartTime><Timestamp dt:dt=""int"">0</Timestamp><DateUtc dt:dt=""string"">2022-12-10T08:40:53Z</DateUtc></StartTime><FrequencyChanges><FrequencyChange><Frequency dt:dt=""r8"">10000000</Frequency><Timestamp dt:dt=""r8"">2686620506179</Timestamp><Current dt:dt=""r8"">0</Current><DateUtc dt:dt=""string"">2022-12-10T08:40:53Z</DateUtc></FrequencyChange></FrequencyChanges></Clock>\n",Wisconsin-1139-4,60.013,1.0.0.248,1,-2026397074,3.0.3.80,3.0.3.80,12-10-2022,12/10/2022 8:40:53 AM,16:40:53,3.0.3.82,3,,,,1.0,1.0,1.0,BlockProc,List2,1,,,,,,,,,,,,,,,,,1.0,1.0,2.0,,,,,,,ColorProc,List3,,,,,,,,,1.0,BUTTON1.png,BUTTON2.PNG,BUTTON3.png,BUTTON4.png,bluetriangle3.png,3.0,1.0,1.0,,,,{button4},0.0,,,,,,,0.0,TrialProc,ColorList,,,,,,,0.0,{button4},10.0,33.0,195440.0,0.0,{Button3},1258.0,Color
Wisconsin,1139,4,"<?xml version=""1.0""?>\n<Clock xmlns:dt=""urn:schemas-microsoft-com:datatypes""><Description dt:dt=""string"">E-Prime Primary Realtime Clock</Description><StartTime><Timestamp dt:dt=""int"">0</Timestamp><DateUtc dt:dt=""string"">2022-12-10T08:40:53Z</DateUtc></StartTime><FrequencyChanges><FrequencyChange><Frequency dt:dt=""r8"">10000000</Frequency><Timestamp dt:dt=""r8"">2686620506179</Timestamp><Current dt:dt=""r8"">0</Current><DateUtc dt:dt=""string"">2022-12-10T08:40:53Z</DateUtc></FrequencyChange></FrequencyChanges></Clock>\n",Wisconsin-1139-4,60.013,1.0.0.248,1,-2026397074,3.0.3.80,3.0.3.80,12-10-2022,12/10/2022 8:40:53 AM,16:40:53,3.0.3.82,3,,,,1.0,1.0,1.0,BlockProc,List2,1,,,,,,,,,,,,,,,,,1.0,1.0,2.0,,,,,,,ColorProc,List3,,,,,,,,,2.0,BUTTON1.png,BUTTON2.PNG,BUTTON3.png,BUTTON4.png,greencircle3.png,4.0,1.0,2.0,,,,{button1},0.0,,,,,,,0.0,TrialProc,ColorList,,,,,,,1.0,{button1},10.0,33.0,199273.0,0.0,{Button1},1001.0,Color
Wisconsin,1139,4,"<?xml version=""1.0""?>\n<Clock xmlns:dt=""urn:schemas-microsoft-com:datatypes""><Description dt:dt=""string"">E-Prime Primary Realtime Clock</Description><StartTime><Timestamp dt:dt=""int"">0</Timestamp><DateUtc dt:dt=""string"">2022-12-10T08:40:53Z</DateUtc></StartTime><FrequencyChanges><FrequencyChange><Frequency dt:dt=""r8"">10000000</Frequency><Timestamp dt:dt=""r8"">2686620506179</Timestamp><Current dt:dt=""r8"">0</Current><DateUtc dt:dt=""string"">2022-12-10T08:40:53Z</DateUtc></FrequencyChange></FrequencyChanges></Clock>\n",Wisconsin-1139-4,60.013,1.0.0.248,1,-2026397074,3.0.3.80,3.0.3.80,12-10-2022,12/10/2022 8:40:53 AM,16:40:53,3.0.3.82,3,,,,1.0,1.0,1.0,BlockProc,List2,1,,,,,,,,,,,,,,,,,1.0,1.0,2.0,,,,,,,ColorProc,List3,,,,,,,,,3.0,BUTTON1.png,BUTTON2.PNG,BUTTON3.png,BUTTON4.png,redcircle3.png,8.0,1.0,3.0,,,,{button3},0.0,,,,,,,0.0,TrialProc,ColorList,,,,,,,1.0,{button3},2.0,33.0,202855.0,0.0,{Button3},1419.0,Color
Wisconsin,1139,4,"<?xml version=""1.0""?>\n<Clock xmlns:dt=""urn:schemas-microsoft-com:datatypes""><Description dt:dt=""string"">E-Prime Primary Realtime Clock</Description><StartTime><Timestamp dt:dt=""int"">0</Timestamp><DateUtc dt:dt=""string"">2022-12-10T08:40:53Z</DateUtc></StartTime><FrequencyChanges><FrequencyChange><Frequency dt:dt=""r8"">10000000</Frequency><Timestamp dt:dt=""r8"">2686620506179</Timestamp><Current dt:dt=""r8"">0</Current><DateUtc dt:dt=""string"">2022-12-10T08:40:53Z</DateUtc></FrequencyChange></FrequencyChanges></Clock>\n",Wisconsin-1139-4,60.013,1.0.0.248,1,-2026397074,3.0.3.80,3.0.3.80,12-10-2022,12/10/2022 8:40:53 AM,16:40:53,3.0.3.82,3,,,,1.0,1.0,1.0,BlockProc,List2,1,,,,,,,,,,,,,,,,,1.0,1.0,2.0,,,,,,,ColorProc,List3,,,,,,,,,4.0,BUTTON1.png,BUTTON2.PNG,BUTTON3.png,BUTTON4.png,greentriangle1.png,6.0,1.0,4.0,,,,{button1},0.0,,,,,,,0.0,TrialProc,ColorList,,,,,,,1.0,{button1},10.0,33.0,206854.0,0.0,{Button1},1372.0,Color
Wisconsin,1139,4,"<?xml version=""1.0""?>\n<Clock xmlns:dt=""urn:schemas-microsoft-com:datatypes""><Description dt:dt=""string"">E-Prime Primary Realtime Clock</Description><StartTime><Timestamp dt:dt=""int"">0</Timestamp><DateUtc dt:dt=""string"">2022-12-10T08:40:53Z</DateUtc></StartTime><FrequencyChanges><FrequencyChange><Frequency dt:dt=""r8"">10000000</Frequency><Timestamp dt:dt=""r8"">2686620506179</Timestamp><Current dt:dt=""r8"">0</Current><DateUtc dt:dt=""string"">2022-12-10T08:40:53Z</DateUtc></FrequencyChange></FrequencyChanges></Clock>\n",Wisconsin-1139-4,60.013,1.0.0.248,1,-2026397074,3.0.3.80,3.0.3.80,12-10-2022,12/10/2022 8:40:53 AM,16:40:53,3.0.3.82,3,,,,1.0,1.0,1.0,BlockProc,List2,1,,,,,,,,,,,,,,,,,1.0,1.0,2.0,,,,,,,ColorProc,List3,,,,,,,,,5.0,BUTTON1.png,BUTTON2.PNG,BUTTON3.png,BUTTON4.png,greentriangle3.png,7.0,1.0,5.0,,,,{button1},0.0,,,,,,,0.0,TrialProc,ColorList,,,,,,,1.0,{button1},10.0,33.0,210803.0,0.0,{Button1},1351.0,Color
Wisconsin,1139,4,"<?xml version=""1.0""?>\n<Clock xmlns:dt=""urn:schemas-microsoft-com:datatypes""><Description dt:dt=""string"">E-Prime Primary Realtime Clock</Description><StartTime><Timestamp dt:dt=""int"">0</Timestamp><DateUtc dt:dt=""string"">2022-12-10T08:40:53Z</DateUtc></StartTime><FrequencyChanges><FrequencyChange><Frequency dt:dt=""r8"">10000000</Frequency><Timestamp dt:dt=""r8"">2686620506179</Timestamp><Current dt:dt=""r8"">0</Current><DateUtc dt:dt=""string"">2022-12-10T08:40:53Z</DateUtc></FrequencyChange></FrequencyChanges></Clock>\n",Wisconsin-1139-4,60.013,1.0.0.248,1,-2026397074,3.0.3.80,3.0.3.80,12-10-2022,12/10/2022 8:40:53 AM,16:40:53,3.0.3.82,3,,,,1.0,1.0,1.0,BlockProc,List2,1,,,,,,,,,,,,,,,,,1.0,1.0,2.0,,,,,,,ColorProc,List3,,,,,,,,,6.0,BUTTON1.png,BUTTON2.PNG,BUTTON3.png,BUTTON4.png,bluecircle1.png,1.0,1.0,6.0,,,,{button4},0.0,,,,,,,0.0,TrialProc,ColorList,,,,,,,1.0,{button4},10.0,49.0,214752.0,0.0,{Button4},1098.0,Color
Wisconsin,1139,4,"<?xml version=""1.0""?>\n<Clock xmlns:dt=""urn:schemas-microsoft-com:datatypes""><Description dt:dt=""string"">E-Prime Primary Realtime Clock</Description><StartTime><Timestamp dt:dt=""int"">0</Timestamp><DateUtc dt:dt=""string"">2022-12-10T08:40:53Z</DateUtc></StartTime><FrequencyChanges><FrequencyChange><Frequency dt:dt=""r8"">10000000</Frequency><Timestamp dt:dt=""r8"">2686620506179</Timestamp><Current dt:dt=""r8"">0</Current><DateUtc dt:dt=""string"">2022-12-10T08:40:53Z</DateUtc></FrequencyChange></FrequencyChanges></Clock>\n",Wisconsin-1139-4,60.013,1.0.0.248,1,-2026397074,3.0.3.80,3.0.3.80,12-10-2022,12/10/2022 8:40:53 AM,16:40:53,3.0.3.82,3,,,,1.0,1.0,1.0,BlockProc,List2,1,,,,,,,,,,,,,,,,,1.0,1.0,2.0,,,,,,,ColorProc,List3,,,,,,,,,7.0,BUTTON1.png,BUTTON2.PNG,BUTTON3.png,BUTTON4.png,bluecross2.png,2.0,1.0,7.0,,,,{button4},0.0,,,,,,,0.0,TrialProc,ColorList,,,,,,,1.0,{button4},9.0,33.0,218435.0,0.0,{Button4},1263.0,Color
Wisconsin,1139,4,"<?xml version=""1.0""?>\n<Clock xmlns:dt=""urn:schemas-microsoft-com:datatypes""><Description dt:dt=""string"">E-Prime Primary Realtime Clock</Description><StartTime><Timestamp dt:dt=""int"">0</Timestamp><DateUtc dt:dt=""string"">2022-12-10T08:40:53Z</DateUtc></StartTime><FrequencyChanges><FrequencyChange><Frequency dt:dt=""r8"">10000000</Frequency><Timestamp dt:dt=""r8"">2686620506179</Timestamp><Current dt:dt=""r8"">0</Current><DateUtc dt:dt=""string"">2022-12-10T08:40:53Z</DateUtc></FrequencyChange></FrequencyChanges></Clock>\n",Wisconsin-1139-4,60.013,1.0.0.248,1,-2026397074,3.0.3.80,3.0.3.80,12-10-2022,12/10/2022 8:40:53 AM,16:40:53,3.0.3.82,3,,,,1.0,1.0,1.0,BlockProc,List2,1,,,,,,,,,,,,,,,,,1.0,1.0,2.0,,,,,,,ColorProc,List3,,,,,,,,,8.0,BUTTON1.png,BUTTON2.PNG,BUTTON3.png,BUTTON4.png,greenstar2.png,5.0,1.0,8.0,,,,{button1},0.0,,,,,,,0.0,TrialProc,ColorList,,,,,,,1.0,{button1},10.0,33.0,222284.0,0.0,{Button1},1166.0,Color
Wisconsin,1139,4,"<?xml version=""1.0""?>\n<Clock xmlns:dt=""urn:schemas-microsoft-com:datatypes""><Description dt:dt=""string"">E-Prime Primary Realtime Clock</Description><StartTime><Timestamp dt:dt=""int"">0</Timestamp><DateUtc dt:dt=""string"">2022-12-10T08:40:53Z</DateUtc></StartTime><FrequencyChanges><FrequencyChange><Frequency dt:dt=""r8"">10000000</Frequency><Timestamp dt:dt=""r8"">2686620506179</Timestamp><Current dt:dt=""r8"">0</Current><DateUtc dt:dt=""string"">2022-12-10T08:40:53Z</DateUtc></FrequencyChange></FrequencyChanges></Clock>\n",Wisconsin-1139-4,60.013,1.0.0.248,1,-2026397074,3.0.3.80,3.0.3.80,12-10-2022,12/10/2022 8:40:53 AM,16:40:53,3.0.3.82,3,,,,1.0,1.0,1.0,BlockProc,List2,1,,,,,,,,,,,,,,,,,1.0,1.0,2.0,,,,,,,ColorProc,List3,,,,,,,,,9.0,BUTTON1.png,BUTTON2.PNG,BUTTON3.png,BUTTON4.png,yellowcircle1.png,9.0,1.0,9.0,,,,{button2},0.0,,,,,,,0.0,TrialProc,ColorList,,,,,,,1.0,{button2},10.0,33.0,226016.0,0.0,{Button2},1002.0,Color
Wisconsin,1139,4,"<?xml version=""1.0""?>\n<Clock xmlns:dt=""urn:schemas-microsoft-com:datatypes""><Description dt:dt=""string"">E-Prime Primary Realtime Clock</Description><StartTime><Timestamp dt:dt=""int"">0</Timestamp><DateUtc dt:dt=""string"">2022-12-10T08:40:53Z</DateUtc></StartTime><FrequencyChanges><FrequencyChange><Frequency dt:dt=""r8"">10000000</Frequency><Timestamp dt:dt=""r8"">2686620506179</Timestamp><Current dt:dt=""r8"">0</Current><DateUtc dt:dt=""string"">2022-12-10T08:40:53Z</DateUtc></FrequencyChange></FrequencyChanges></Clock>\n",Wisconsin-1139-4,60.013,1.0.0.248,1,-2026397074,3.0.3.80,3.0.3.80,12-10-2022,12/10/2022 8:40:53 AM,16:40:53,3.0.3.82,3,,,,1.0,1.0,1.0,BlockProc,List2,1,,,,,,,,,,,,,,,,,1.0,1.0,2.0,,,,,,,ColorProc,List3,,,,,,,,,10.0,BUTTON1.png,BUTTON2.PNG,BUTTON3.png,BUTTON4.png,yellowstar3.png,10.0,1.0,10.0,,,,{button2},0.0,,,,,,,0.0,TrialProc,ColorList,,,,,,,1.0,{button2},9.0,33.0,229599.0,0.0,{Button2},1123.0,Color
Wisconsin,1139,4,"<?xml version=""1.0""?>\n<Clock xmlns:dt=""urn:schemas-microsoft-com:datatypes""><Description dt:dt=""string"">E-Prime Primary Realtime Clock</Description><StartTime><Timestamp dt:dt=""int"">0</Timestamp><DateUtc dt:dt=""string"">2022-12-10T08:40:53Z</DateUtc></StartTime><FrequencyChanges><FrequencyChange><Frequency dt:dt=""r8"">10000000</Frequency><Timestamp dt:dt=""r8"">2686620506179</Timestamp><Current dt:dt=""r8"">0</Current><DateUtc dt:dt=""string"">2022-12-10T08:40:53Z</DateUtc></FrequencyChange></FrequencyChanges></Clock>\n",Wisconsin-1139-4,60.013,1.0.0.248,1,-2026397074,3.0.3.80,3.0.3.80,12-10-2022,12/10/2022 8:40:53 AM,16:40:53,3.0.3.82,3,,,,2.0,1.0,2.0,BlockProc,List2,2,,,,,,,,,,,,,,,,,1.0,1.0,2.0,,,,,,,ShapeProc,List3,,,,,,,,,1.0,Button1.png,Button2.png,Button3.png,Button4.png,Redcross1.png,,,,,,,{Button3},0.0,,,,,,,0.0,TrialProc,ShapeList,5.0,1.0,1.0,,,,1.0,{Button3},9.0,33.0,233298.0,0.0,{Button3},752.0,Shape
Wisconsin,1139,4,"<?xml version=""1.0""?>\n<Clock xmlns:dt=""urn:schemas-microsoft-com:datatypes""><Description dt:dt=""string"">E-Prime Primary Realtime Clock</Description><StartTime><Timestamp dt:dt=""int"">0</Timestamp><DateUtc dt:dt=""string"">2022-12-10T08:40:53Z</DateUtc></StartTime><FrequencyChanges><FrequencyChange><Frequency dt:dt=""r8"">10000000</Frequency><Timestamp dt:dt=""r8"">2686620506179</Timestamp><Current dt:dt=""r8"">0</Current><DateUtc dt:dt=""string"">2022-12-10T08:40:53Z</DateUtc></FrequencyChange></FrequencyChanges></Clock>\n",Wisconsin-1139-4,60.013,1.0.0.248,1,-2026397074,3.0.3.80,3.0.3.80,12-10-2022,12/10/2022 8:40:53 AM,16:40:53,3.0.3.82,3,,,,2.0,1.0,2.0,BlockProc,List2,2,,,,,,,,,,,,,,,,,1.0,1.0,2.0,,,,,,,ShapeProc,List3,,,,,,,,,2.0,Button1.png,Button2.png,Button3.png,Button4.png,Yellowstar1.png,,,,,,,{Button4},0.0,,,,,,,0.0,TrialProc,ShapeList,9.0,1.0,2.0,,,,0.0,{Button4},10.0,33.0,236630.0,0.0,{Button2},1324.0,Shape
Wisconsin,1139,4,"<?xml version=""1.0""?>\n<Clock xmlns:dt=""urn:schemas-microsoft-com:datatypes""><Description dt:dt=""string"">E-Prime Primary Realtime Clock</Description><StartTime><Timestamp dt:dt=""int"">0</Timestamp><DateUtc dt:dt=""string"">2022-12-10T08:40:53Z</DateUtc></StartTime><FrequencyChanges><FrequencyChange><Frequency dt:dt=""r8"">10000000</Frequency><Timestamp dt:dt=""r8"">2686620506179</Timestamp><Current dt:dt=""r8"">0</Current><DateUtc dt:dt=""string"">2022-12-10T08:40:53Z</DateUtc></FrequencyChange></FrequencyChanges></Clock>\n",Wisconsin-1139-4,60.013,1.0.0.248,1,-2026397074,3.0.3.80,3.0.3.80,12-10-2022,12/10/2022 8:40:53 AM,16:40:53,3.0.3.82,3,,,,2.0,1.0,2.0,BlockProc,List2,2,,,,,,,,,,,,,,,,,1.0,1.0,2.0,,,,,,,ShapeProc,List3,,,,,,,,,3.0,Button1.png,Button2.png,Button3.png,Button4.png,Redcross4.png,,,,,,,{Button3},0.0,,,,,,,0.0,TrialProc,ShapeList,6.0,1.0,3.0,,,,0.0,{Button3},2.0,33.0,240529.0,0.0,{Button2},1121.0,Shape
Wisconsin,1139,4,"<?xml version=""1.0""?>\n<Clock xmlns:dt=""urn:schemas-microsoft-com:datatypes""><Description dt:dt=""string"">E-Prime Primary Realtime Clock</Description><StartTime><Timestamp dt:dt=""int"">0</Timestamp><DateUtc dt:dt=""string"">2022-12-10T08:40:53Z</DateUtc></StartTime><FrequencyChanges><FrequencyChange><Frequency dt:dt=""r8"">10000000</Frequency><Timestamp dt:dt=""r8"">2686620506179</Timestamp><Current dt:dt=""r8"">0</Current><DateUtc dt:dt=""string"">2022-12-10T08:40:53Z</DateUtc></FrequencyChange></FrequencyChanges></Clock>\n",Wisconsin-1139-4,60.013,1.0.0.248,1,-2026397074,3.0.3.80,3.0.3.80,12-10-2022,12/10/2022 8:40:53 AM,16:40:53,3.0.3.82,3,,,,2.0,1.0,2.0,BlockProc,List2,2,,,,,,,,,,,,,,,,,1.0,1.0,2.0,,,,,,,ShapeProc,List3,,,,,,,,,4.0,Button1.png,Button2.png,Button3.png,Button4.png,Yellowstar4.png,,,,,,,{Button4},0.0,,,,,,,0.0,TrialProc,ShapeList,10.0,1.0,4.0,,,,1.0,{Button4},10.0,33.0,244228.0,0.0,{Button4},1974.0,Shape
Wisconsin,1139,4,"<?xml version=""1.0""?>\n<Clock xmlns:dt=""urn:schemas-microsoft-com:datatypes""><Description dt:dt=""string"">E-Prime Primary Realtime Clock</Description><StartTime><Timestamp dt:dt=""int"">0</Timestamp><DateUtc dt:dt=""string"">2022-12-10T08:40:53Z</DateUtc></StartTime><FrequencyChanges><FrequencyChange><Frequency dt:dt=""r8"">10000000</Frequency><Timestamp dt:dt=""r8"">2686620506179</Timestamp><Current dt:dt=""r8"">0</Current><DateUtc dt:dt=""string"">2022-12-10T08:40:53Z</DateUtc></FrequencyChange></FrequencyChanges></Clock>\n",Wisconsin-1139-4,60.013,1.0.0.248,1,-2026397074,3.0.3.80,3.0.3.80,12-10-2022,12/10/2022 8:40:53 AM,16:40:53,3.0.3.82,3,,,,2.0,1.0,2.0,BlockProc,List2,2,,,,,,,,,,,,,,,,,1.0,1.0,2.0,,,,,,,ShapeProc,List3,,,,,,,,,5.0,Button1.png,Button2.png,Button3.png,Button4.png,yellowcircle3.png,,,,,,,{Button1},0.0,,,,,,,0.0,TrialProc,ShapeList,8.0,1.0,5.0,,,,1.0,{Button1},10.0,33.0,248777.0,0.0,{Button1},1353.0,Shape
Wisconsin,1139,4,"<?xml version=""1.0""?>\n<Clock xmlns:dt=""urn:schemas-microsoft-com:datatypes""><Description dt:dt=""string"">E-Prime Primary Realtime Clock</Description><StartTime><Timestamp dt:dt=""int"">0</Timestamp><DateUtc dt:dt=""string"">2022-12-10T08:40:53Z</DateUtc></StartTime><FrequencyChanges><FrequencyChange><Frequency dt:dt=""r8"">10000000</Frequency><Timestamp dt:dt=""r8"">2686620506179</Timestamp><Current dt:dt=""r8"">0</Current><DateUtc dt:dt=""string"">2022-12-10T08:40:53Z</DateUtc></FrequencyChange></FrequencyChanges></Clock>\n",Wisconsin-1139-4,60.013,1.0.0.248,1,-2026397074,3.0.3.80,3.0.3.80,12-10-2022,12/10/2022 8:40:53 AM,16:40:53,3.0.3.82,3,,,,2.0,1.0,2.0,BlockProc,List2,2,,,,,,,,,,,,,,,,,1.0,1.0,2.0,,,,,,,ShapeProc,List3,,,,,,,,,6.0,Button1.png,Button2.png,Button3.png,Button4.png,Redtriangle1.png,,,,,,,{Button2},0.0,,,,,,,0.0,TrialProc,ShapeList,7.0,1.0,6.0,,,,0.0,{Button2},9.0,33.0,252710.0,0.0,{Button3},1620.0,Shape
Wisconsin,1139,4,"<?xml version=""1.0""?>\n<Clock xmlns:dt=""urn:schemas-microsoft-com:datatypes""><Description dt:dt=""string"">E-Prime Primary Realtime Clock</Description><StartTime><Timestamp dt:dt=""int"">0</Timestamp><DateUtc dt:dt=""string"">2022-12-10T08:40:53Z</DateUtc></StartTime><FrequencyChanges><FrequencyChange><Frequency dt:dt=""r8"">10000000</Frequency><Timestamp dt:dt=""r8"">2686620506179</Timestamp><Current dt:dt=""r8"">0</Current><DateUtc dt:dt=""string"">2022-12-10T08:40:53Z</DateUtc></FrequencyChange></FrequencyChanges></Clock>\n",Wisconsin-1139-4,60.013,1.0.0.248,1,-2026397074,3.0.3.80,3.0.3.80,12-10-2022,12/10/2022 8:40:53 AM,16:40:53,3.0.3.82,3,,,,2.0,1.0,2.0,BlockProc,List2,2,,,,,,,,,,,,,,,,,1.0,1.0,2.0,,,,,,,ShapeProc,List3,,,,,,,,,7.0,Button1.png,Button2.png,Button3.png,Button4.png,Greencross1.png,,,,,,,{Button3},0.0,,,,,,,0.0,TrialProc,ShapeList,3.0,1.0,7.0,,,,0.0,{Button3},10.0,33.0,256909.0,0.0,{Button4},1773.0,Shape
Wisconsin,1139,4,"<?xml version=""1.0""?>\n<Clock xmlns:dt=""urn:schemas-microsoft-com:datatypes""><Description dt:dt=""string"">E-Prime Primary Realtime Clock</Description><StartTime><Timestamp dt:dt=""int"">0</Timestamp><DateUtc dt:dt=""string"">2022-12-10T08:40:53Z</DateUtc></StartTime><FrequencyChanges><FrequencyChange><Frequency dt:dt=""r8"">10000000</Frequency><Timestamp dt:dt=""r8"">2686620506179</Timestamp><Current dt:dt=""r8"">0</Current><DateUtc dt:dt=""string"">2022-12-10T08:40:53Z</DateUtc></FrequencyChange></FrequencyChanges></Clock>\n",Wisconsin-1139-4,60.013,1.0.0.248,1,-2026397074,3.0.3.80,3.0.3.80,12-10-2022,12/10/2022 8:40:53 AM,16:40:53,3.0.3.82,3,,,,2.0,1.0,2.0,BlockProc,List2,2,,,,,,,,,,,,,,,,,1.0,1.0,2.0,,,,,,,ShapeProc,List3,,,,,,,,,8.0,Button1.png,Button2.png,Button3.png,Button4.png,Bluecross4.png,,,,,,,{Button3},0.0,,,,,,,0.0,TrialProc,ShapeList,2.0,1.0,8.0,,,,1.0,{Button3},1.0,33.0,261258.0,0.0,{Button3},1872.0,Shape
Wisconsin,1139,4,"<?xml version=""1.0""?>\n<Clock xmlns:dt=""urn:schemas-microsoft-com:datatypes""><Description dt:dt=""string"">E-Prime Primary Realtime Clock</Description><StartTime><Timestamp dt:dt=""int"">0</Timestamp><DateUtc dt:dt=""string"">2022-12-10T08:40:53Z</DateUtc></StartTime><FrequencyChanges><FrequencyChange><Frequency dt:dt=""r8"">10000000</Frequency><Timestamp dt:dt=""r8"">2686620506179</Timestamp><Current dt:dt=""r8"">0</Current><DateUtc dt:dt=""string"">2022-12-10T08:40:53Z</DateUtc></FrequencyChange></FrequencyChanges></Clock>\n",Wisconsin-1139-4,60.013,1.0.0.248,1,-2026397074,3.0.3.80,3.0.3.80,12-10-2022,12/10/2022 8:40:53 AM,16:40:53,3.0.3.82,3,,,,2.0,1.0,2.0,BlockProc,List2,2,,,,,,,,,,,,,,,,,1.0,1.0,2.0,,,,,,,ShapeProc,List3,,,,,,,,,9.0,Button1.png,Button2.png,Button3.png,Button4.png,Bluecircle2.png,,,,,,,{Button1},0.0,,,,,,,0.0,TrialProc,ShapeList,1.0,1.0,9.0,,,,1.0,{Button1},9.0,33.0,265706.0,0.0,{Button1},1072.0,Shape
Wisconsin,1139,4,"<?xml version=""1.0""?>\n<Clock xmlns:dt=""urn:schemas-microsoft-com:datatypes""><Description dt:dt=""string"">E-Prime Primary Realtime Clock</Description><StartTime><Timestamp dt:dt=""int"">0</Timestamp><DateUtc dt:dt=""string"">2022-12-10T08:40:53Z</DateUtc></StartTime><FrequencyChanges><FrequencyChange><Frequency dt:dt=""r8"">10000000</Frequency><Timestamp dt:dt=""r8"">2686620506179</Timestamp><Current dt:dt=""r8"">0</Current><DateUtc dt:dt=""string"">2022-12-10T08:40:53Z</DateUtc></FrequencyChange></FrequencyChanges></Clock>\n",Wisconsin-1139-4,60.013,1.0.0.248,1,-2026397074,3.0.3.80,3.0.3.80,12-10-2022,12/10/2022 8:40:53 AM,16:40:53,3.0.3.82,3,,,,2.0,1.0,2.0,BlockProc,List2,2,,,,,,,,,,,,,,,,,1.0,1.0,2.0,,,,,,,ShapeProc,List3,,,,,,,,,10.0,Button1.png,Button2.png,Button3.png,Button4.png,Greentriangle4.png,,,,,,,{Button2},0.0,,,,,,,0.0,TrialProc,ShapeList,4.0,1.0,10.0,,,,0.0,{Button2},10.0,33.0,269356.0,0.0,{Button1},1534.0,Shape
Wisconsin,1139,4,"<?xml version=""1.0""?>\n<Clock xmlns:dt=""urn:schemas-microsoft-com:datatypes""><Description dt:dt=""string"">E-Prime Primary Realtime Clock</Description><StartTime><Timestamp dt:dt=""int"">0</Timestamp><DateUtc dt:dt=""string"">2022-12-10T08:40:53Z</DateUtc></StartTime><FrequencyChanges><FrequencyChange><Frequency dt:dt=""r8"">10000000</Frequency><Timestamp dt:dt=""r8"">2686620506179</Timestamp><Current dt:dt=""r8"">0</Current><DateUtc dt:dt=""string"">2022-12-10T08:40:53Z</DateUtc></FrequencyChange></FrequencyChanges></Clock>\n",Wisconsin-1139-4,60.013,1.0.0.248,1,-2026397074,3.0.3.80,3.0.3.80,12-10-2022,12/10/2022 8:40:53 AM,16:40:53,3.0.3.82,3,,,,3.0,1.0,3.0,BlockProc,List2,3,,,,,,,,,,,,,,,,,1.0,1.0,2.0,,,,,,,NumberProc,List3,,,,,,,,,1.0,Button1.png,Button2.png,Button3.png,Button4.png,Yellowcross1.png,,,,,,,{Button4},0.0,9.0,1.0,1.0,,,,0.0,TrialProc,NumberList,,,,,,,0.0,{Button4},13.0,33.0,273471.0,0.0,{Button3},1243.0,number
Wisconsin,1139,4,"<?xml version=""1.0""?>\n<Clock xmlns:dt=""urn:schemas-microsoft-com:datatypes""><Description dt:dt=""string"">E-Prime Primary Realtime Clock</Description><StartTime><Timestamp dt:dt=""int"">0</Timestamp><DateUtc dt:dt=""string"">2022-12-10T08:40:53Z</DateUtc></StartTime><FrequencyChanges><FrequencyChange><Frequency dt:dt=""r8"">10000000</Frequency><Timestamp dt:dt=""r8"">2686620506179</Timestamp><Current dt:dt=""r8"">0</Current><DateUtc dt:dt=""string"">2022-12-10T08:40:53Z</DateUtc></FrequencyChange></FrequencyChanges></Clock>\n",Wisconsin-1139-4,60.013,1.0.0.248,1,-2026397074,3.0.3.80,3.0.3.80,12-10-2022,12/10/2022 8:40:53 AM,16:40:53,3.0.3.82,3,,,,3.0,1.0,3.0,BlockProc,List2,3,,,,,,,,,,,,,,,,,1.0,1.0,2.0,,,,,,,NumberProc,List3,,,,,,,,,2.0,Button1.png,Button2.png,Button3.png,Button4.png,Bluetriangle1.png,,,,,,,{Button4},0.0,3.0,1.0,2.0,,,,0.0,TrialProc,NumberList,,,,,,,1.0,{Button4},2.0,33.0,277287.0,0.0,{Button4},1819.0,number
Wisconsin,1139,4,"<?xml version=""1.0""?>\n<Clock xmlns:dt=""urn:schemas-microsoft-com:datatypes""><Description dt:dt=""string"">E-Prime Primary Realtime Clock</Description><StartTime><Timestamp dt:dt=""int"">0</Timestamp><DateUtc dt:dt=""string"">2022-12-10T08:40:53Z</DateUtc></StartTime><FrequencyChanges><FrequencyChange><Frequency dt:dt=""r8"">10000000</Frequency><Timestamp dt:dt=""r8"">2686620506179</Timestamp><Current dt:dt=""r8"">0</Current><DateUtc dt:dt=""string"">2022-12-10T08:40:53Z</DateUtc></FrequencyChange></FrequencyChanges></Clock>\n",Wisconsin-1139-4,60.013,1.0.0.248,1,-2026397074,3.0.3.80,3.0.3.80,12-10-2022,12/10/2022 8:40:53 AM,16:40:53,3.0.3.82,3,,,,3.0,1.0,3.0,BlockProc,List2,3,,,,,,,,,,,,,,,,,1.0,1.0,2.0,,,,,,,NumberProc,List3,,,,,,,,,3.0,Button1.png,Button2.png,Button3.png,Button4.png,Bluecircle4.png,,,,,,,{Button2},0.0,1.0,1.0,3.0,,,,0.0,TrialProc,NumberList,,,,,,,0.0,{Button2},10.0,33.0,281686.0,0.0,{Button1},1764.0,number
Wisconsin,1139,4,"<?xml version=""1.0""?>\n<Clock xmlns:dt=""urn:schemas-microsoft-com:datatypes""><Description dt:dt=""string"">E-Prime Primary Realtime Clock</Description><StartTime><Timestamp dt:dt=""int"">0</Timestamp><DateUtc dt:dt=""string"">2022-12-10T08:40:53Z</DateUtc></StartTime><FrequencyChanges><FrequencyChange><Frequency dt:dt=""r8"">10000000</Frequency><Timestamp dt:dt=""r8"">2686620506179</Timestamp><Current dt:dt=""r8"">0</Current><DateUtc dt:dt=""string"">2022-12-10T08:40:53Z</DateUtc></FrequencyChange></FrequencyChanges></Clock>\n",Wisconsin-1139-4,60.013,1.0.0.248,1,-2026397074,3.0.3.80,3.0.3.80,12-10-2022,12/10/2022 8:40:53 AM,16:40:53,3.0.3.82,3,,,,3.0,1.0,3.0,BlockProc,List2,3,,,,,,,,,,,,,,,,,1.0,1.0,2.0,,,,,,,NumberProc,List3,,,,,,,,,4.0,Button1.png,Button2.png,Button3.png,Button4.png,Greencircle4.png,,,,,,,{Button2},0.0,4.0,1.0,4.0,,,,0.0,TrialProc,NumberList,,,,,,,0.0,{Button2},1.0,33.0,286035.0,0.0,{Button1},1279.0,number
Wisconsin,1139,4,"<?xml version=""1.0""?>\n<Clock xmlns:dt=""urn:schemas-microsoft-com:datatypes""><Description dt:dt=""string"">E-Prime Primary Realtime Clock</Description><StartTime><Timestamp dt:dt=""int"">0</Timestamp><DateUtc dt:dt=""string"">2022-12-10T08:40:53Z</DateUtc></StartTime><FrequencyChanges><FrequencyChange><Frequency dt:dt=""r8"">10000000</Frequency><Timestamp dt:dt=""r8"">2686620506179</Timestamp><Current dt:dt=""r8"">0</Current><DateUtc dt:dt=""string"">2022-12-10T08:40:53Z</DateUtc></FrequencyChange></FrequencyChanges></Clock>\n",Wisconsin-1139-4,60.013,1.0.0.248,1,-2026397074,3.0.3.80,3.0.3.80,12-10-2022,12/10/2022 8:40:53 AM,16:40:53,3.0.3.82,3,,,,3.0,1.0,3.0,BlockProc,List2,3,,,,,,,,,,,,,,,,,1.0,1.0,2.0,,,,,,,NumberProc,List3,,,,,,,,,5.0,Button1.png,Button2.png,Button3.png,Button4.png,Yellowcross3.png,,,,,,,{Button3},0.0,10.0,1.0,5.0,,,,0.0,TrialProc,NumberList,,,,,,,1.0,{Button3},9.0,33.0,289901.0,0.0,{Button3},997.0,number
Wisconsin,1139,4,"<?xml version=""1.0""?>\n<Clock xmlns:dt=""urn:schemas-microsoft-com:datatypes""><Description dt:dt=""string"">E-Prime Primary Realtime Clock</Description><StartTime><Timestamp dt:dt=""int"">0</Timestamp><DateUtc dt:dt=""string"">2022-12-10T08:40:53Z</DateUtc></StartTime><FrequencyChanges><FrequencyChange><Frequency dt:dt=""r8"">10000000</Frequency><Timestamp dt:dt=""r8"">2686620506179</Timestamp><Current dt:dt=""r8"">0</Current><DateUtc dt:dt=""string"">2022-12-10T08:40:53Z</DateUtc></FrequencyChange></FrequencyChanges></Clock>\n",Wisconsin-1139-4,60.013,1.0.0.248,1,-2026397074,3.0.3.80,3.0.3.80,12-10-2022,12/10/2022 8:40:53 AM,16:40:53,3.0.3.82,3,,,,3.0,1.0,3.0,BlockProc,List2,3,,,,,,,,,,,,,,,,,1.0,1.0,2.0,,,,,,,NumberProc,List3,,,,,,,,,6.0,Button1.png,Button2.png,Button3.png,Button4.png,Redcircle4.png,,,,,,,{Button2},0.0,6.0,1.0,6.0,,,,0.0,TrialProc,NumberList,,,,,,,0.0,{Button2},10.0,50.0,293500.0,0.0,{Button1},1526.0,number
Wisconsin,1139,4,"<?xml version=""1.0""?>\n<Clock xmlns:dt=""urn:schemas-microsoft-com:datatypes""><Description dt:dt=""string"">E-Prime Primary Realtime Clock</Description><StartTime><Timestamp dt:dt=""int"">0</Timestamp><DateUtc dt:dt=""string"">2022-12-10T08:40:53Z</DateUtc></StartTime><FrequencyChanges><FrequencyChange><Frequency dt:dt=""r8"">10000000</Frequency><Timestamp dt:dt=""r8"">2686620506179</Timestamp><Current dt:dt=""r8"">0</Current><DateUtc dt:dt=""string"">2022-12-10T08:40:53Z</DateUtc></FrequencyChange></FrequencyChanges></Clock>\n",Wisconsin-1139-4,60.013,1.0.0.248,1,-2026397074,3.0.3.80,3.0.3.80,12-10-2022,12/10/2022 8:40:53 AM,16:40:53,3.0.3.82,3,,,,3.0,1.0,3.0,BlockProc,List2,3,,,,,,,,,,,,,,,,,1.0,1.0,2.0,,,,,,,NumberProc,List3,,,,,,,,,7.0,Button1.png,Button2.png,Button3.png,Button4.png,Redtriangle4.png,,,,,,,{Button2},0.0,8.0,1.0,7.0,,,,0.0,TrialProc,NumberList,,,,,,,0.0,{Button2},2.0,49.0,297615.0,0.0,{Button3},1355.0,number
Wisconsin,1139,4,"<?xml version=""1.0""?>\n<Clock xmlns:dt=""urn:schemas-microsoft-com:datatypes""><Description dt:dt=""string"">E-Prime Primary Realtime Clock</Description><StartTime><Timestamp dt:dt=""int"">0</Timestamp><DateUtc dt:dt=""string"">2022-12-10T08:40:53Z</DateUtc></StartTime><FrequencyChanges><FrequencyChange><Frequency dt:dt=""r8"">10000000</Frequency><Timestamp dt:dt=""r8"">2686620506179</Timestamp><Current dt:dt=""r8"">0</Current><DateUtc dt:dt=""string"">2022-12-10T08:40:53Z</DateUtc></FrequencyChange></FrequencyChanges></Clock>\n",Wisconsin-1139-4,60.013,1.0.0.248,1,-2026397074,3.0.3.80,3.0.3.80,12-10-2022,12/10/2022 8:40:53 AM,16:40:53,3.0.3.82,3,,,,3.0,1.0,3.0,BlockProc,List2,3,,,,,,,,,,,,,,,,,1.0,1.0,2.0,,,,,,,NumberProc,List3,,,,,,,,,8.0,Button1.png,Button2.png,Button3.png,Button4.png,Redstar2.png,,,,,,,{Button1},0.0,7.0,1.0,8.0,,,,0.0,TrialProc,NumberList,,,,,,,0.0,{Button1},1.0,33.0,301548.0,0.0,{Button4},1974.0,number
Wisconsin,1139,4,"<?xml version=""1.0""?>\n<Clock xmlns:dt=""urn:schemas-microsoft-com:datatypes""><Description dt:dt=""string"">E-Prime Primary Realtime Clock</Description><StartTime><Timestamp dt:dt=""int"">0</Timestamp><DateUtc dt:dt=""string"">2022-12-10T08:40:53Z</DateUtc></StartTime><FrequencyChanges><FrequencyChange><Frequency dt:dt=""r8"">10000000</Frequency><Timestamp dt:dt=""r8"">2686620506179</Timestamp><Current dt:dt=""r8"">0</Current><DateUtc dt:dt=""string"">2022-12-10T08:40:53Z</DateUtc></FrequencyChange></FrequencyChanges></Clock>\n",Wisconsin-1139-4,60.013,1.0.0.248,1,-2026397074,3.0.3.80,3.0.3.80,12-10-2022,12/10/2022 8:40:53 AM,16:40:53,3.0.3.82,3,,,,3.0,1.0,3.0,BlockProc,List2,3,,,,,,,,,,,,,,,,,1.0,1.0,2.0,,,,,,,NumberProc,List3,,,,,,,,,9.0,Button1.png,Button2.png,Button3.png,Button4.png,Greencross3.png,,,,,,,{Button3},0.0,5.0,1.0,9.0,,,,0.0,TrialProc,NumberList,,,,,,,1.0,{Button3},1.0,33.0,306097.0,0.0,{Button3},1089.0,number
Wisconsin,1139,4,"<?xml version=""1.0""?>\n<Clock xmlns:dt=""urn:schemas-microsoft-com:datatypes""><Description dt:dt=""string"">E-Prime Primary Realtime Clock</Description><StartTime><Timestamp dt:dt=""int"">0</Timestamp><DateUtc dt:dt=""string"">2022-12-10T08:40:53Z</DateUtc></StartTime><FrequencyChanges><FrequencyChange><Frequency dt:dt=""r8"">10000000</Frequency><Timestamp dt:dt=""r8"">2686620506179</Timestamp><Current dt:dt=""r8"">0</Current><DateUtc dt:dt=""string"">2022-12-10T08:40:53Z</DateUtc></FrequencyChange></FrequencyChanges></Clock>\n",Wisconsin-1139-4,60.013,1.0.0.248,1,-2026397074,3.0.3.80,3.0.3.80,12-10-2022,12/10/2022 8:40:53 AM,16:40:53,3.0.3.82,3,,,,3.0,1.0,3.0,BlockProc,List2,3,,,,,,,,,,,,,,,,,1.0,1.0,2.0,,,,,,,NumberProc,List3,,,,,,,,,10.0,Button1.png,Button2.png,Button3.png,Button4.png,Bluestar2.png,,,,,,,{Button1},0.0,2.0,1.0,10.0,,,,0.0,TrialProc,NumberList,,,,,,,1.0,{Button1},10.0,33.0,309762.0,0.0,{Button1},1336.0,number
