ExperimentName,Subject,Session,Clock.Information,DataFile.Basename,Display.RefreshRate,ExperimentVersion,Group,RandomSeed,RuntimeVersion,RuntimeVersionExpected,SessionDate,SessionStartDateTimeUtc,SessionTime,StudioVersion,Block,List1,List1.Cycle,List1.Sample,List3,List3.Cycle,List3.Sample,Procedure[Block],Running[Block],Trial,CardIMG1[Trial],CardIMG2[Trial],CardIMG3[Trial],CardIMG4[Trial],CardStim[Trial],Category,CorrectAnswer[Trial],FeedbackDisplay2.ACC,FeedbackDisplay2.CRESP,FeedbackDisplay2.DurationError,FeedbackDisplay2.OnsetDelay,FeedbackDisplay2.OnsetTime,FeedbackDisplay2.OnsetToOnsetTime,FeedbackDisplay2.RESP,FeedbackDisplay2.RT,FeedbackDisplay2.RTTime,List2,List2.Cycle,List2.Sample,List4,List4.Cycle,List4.Sample,PracticeList,PracticeList.Cycle,PracticeList.Sample,Procedure[Trial],Running[Trial],Slide5.ACC,Slide5.CRESP,Slide5.DurationError,Slide5.OnsetDelay,Slide5.OnsetTime,Slide5.OnsetToOnsetTime,Slide5.RESP,Slide5.RT,SubTrial,CardIMG1[SubTrial],CardIMG2[SubTrial],CardIMG3[SubTrial],CardIMG4[SubTrial],CardStim[SubTrial],ColorList,ColorList.Cycle,ColorList.Sample,ColorList2,ColorList2.Cycle,ColorList2.Sample,CorrectAnswer[SubTrial],NonPerseverativeError,NumberList,NumberList.Cycle,NumberList.Sample,NumberList1,NumberList1.Cycle,NumberList1.Sample,PerseverativeError,Procedure[SubTrial],Running[SubTrial],ShapeList,ShapeList.Cycle,ShapeList.Sample,ShapeList1,ShapeList1.Cycle,ShapeList1.Sample,Stimulus.ACC,Stimulus.CRESP,Stimulus.DurationError,Stimulus.OnsetDelay,Stimulus.OnsetTime,Stimulus.OnsetToOnsetTime,Stimulus.RESP,Stimulus.RT,TrialType
Wisconsin,1176,1,"<?xml version=""1.0""?>\n<Clock xmlns:dt=""urn:schemas-microsoft-com:datatypes""><Description dt:dt=""string"">E-Prime Primary Realtime Clock</Description><StartTime><Timestamp dt:dt=""int"">0</Timestamp><DateUtc dt:dt=""string"">2023-01-04T01:49:33Z</DateUtc></StartTime><FrequencyChanges><FrequencyChange><Frequency dt:dt=""r8"">2929863</Frequency><Timestamp dt:dt=""r8"">7662298839</Timestamp><Current dt:dt=""r8"">0</Current><DateUtc dt:dt=""string"">2023-01-04T01:49:33Z</DateUtc></FrequencyChange></FrequencyChanges></Clock>\n",Wisconsin-1176-1,59.957,1.0.0.553,1,-927046484,2.0.10.356,2.0.10.356,01-04-2023,1/4/2023 1:49:33 AM,09:49:33,2.0.10.252,1,1.0,1.0,1.0,,,,Practicebloc,List1,1,Button1.png,Button2.png,Button3.png,Button4.png,Greencircle3.png,顏色,z,0.0,,0.0,22.0,57351.0,0.0,,0.0,0.0,,,,,,,1.0,1.0,1.0,PracticeTrialProc,PracticeList,1.0,z,0.0,1.0,54699.0,0.0,z,2627.0,,,,,,,,,,,,,,,,,,,,,,,,,,,,,,,,,,,,,,
Wisconsin,1176,1,"<?xml version=""1.0""?>\n<Clock xmlns:dt=""urn:schemas-microsoft-com:datatypes""><Description dt:dt=""string"">E-Prime Primary Realtime Clock</Description><StartTime><Timestamp dt:dt=""int"">0</Timestamp><DateUtc dt:dt=""string"">2023-01-04T01:49:33Z</DateUtc></StartTime><FrequencyChanges><FrequencyChange><Frequency dt:dt=""r8"">2929863</Frequency><Timestamp dt:dt=""r8"">7662298839</Timestamp><Current dt:dt=""r8"">0</Current><DateUtc dt:dt=""string"">2023-01-04T01:49:33Z</DateUtc></FrequencyChange></FrequencyChanges></Clock>\n",Wisconsin-1176-1,59.957,1.0.0.553,1,-927046484,2.0.10.356,2.0.10.356,01-04-2023,1/4/2023 1:49:33 AM,09:49:33,2.0.10.252,1,1.0,1.0,1.0,,,,Practicebloc,List1,2,Button1.png,Button2.png,Button3.png,Button4.png,Redstar2.png,顏色,c,0.0,,0.0,25.0,61687.0,0.0,,0.0,0.0,,,,,,,2.0,1.0,2.0,PracticeTrialProc,PracticeList,1.0,c,0.0,1.0,59903.0,0.0,c,1759.0,,,,,,,,,,,,,,,,,,,,,,,,,,,,,,,,,,,,,,
Wisconsin,1176,1,"<?xml version=""1.0""?>\n<Clock xmlns:dt=""urn:schemas-microsoft-com:datatypes""><Description dt:dt=""string"">E-Prime Primary Realtime Clock</Description><StartTime><Timestamp dt:dt=""int"">0</Timestamp><DateUtc dt:dt=""string"">2023-01-04T01:49:33Z</DateUtc></StartTime><FrequencyChanges><FrequencyChange><Frequency dt:dt=""r8"">2929863</Frequency><Timestamp dt:dt=""r8"">7662298839</Timestamp><Current dt:dt=""r8"">0</Current><DateUtc dt:dt=""string"">2023-01-04T01:49:33Z</DateUtc></FrequencyChange></FrequencyChanges></Clock>\n",Wisconsin-1176-1,59.957,1.0.0.553,1,-927046484,2.0.10.356,2.0.10.356,01-04-2023,1/4/2023 1:49:33 AM,09:49:33,2.0.10.252,1,1.0,1.0,1.0,,,,Practicebloc,List1,3,Button1.png,Button2.png,Button3.png,Button4.png,Bluetriangle1.png,形狀,x,0.0,,0.0,11.0,66041.0,0.0,,0.0,0.0,,,,,,,3.0,1.0,3.0,PracticeTrialProc,PracticeList,1.0,x,0.0,0.0,64239.0,0.0,x,1791.0,,,,,,,,,,,,,,,,,,,,,,,,,,,,,,,,,,,,,,
Wisconsin,1176,1,"<?xml version=""1.0""?>\n<Clock xmlns:dt=""urn:schemas-microsoft-com:datatypes""><Description dt:dt=""string"">E-Prime Primary Realtime Clock</Description><StartTime><Timestamp dt:dt=""int"">0</Timestamp><DateUtc dt:dt=""string"">2023-01-04T01:49:33Z</DateUtc></StartTime><FrequencyChanges><FrequencyChange><Frequency dt:dt=""r8"">2929863</Frequency><Timestamp dt:dt=""r8"">7662298839</Timestamp><Current dt:dt=""r8"">0</Current><DateUtc dt:dt=""string"">2023-01-04T01:49:33Z</DateUtc></FrequencyChange></FrequencyChanges></Clock>\n",Wisconsin-1176-1,59.957,1.0.0.553,1,-927046484,2.0.10.356,2.0.10.356,01-04-2023,1/4/2023 1:49:33 AM,09:49:33,2.0.10.252,1,1.0,1.0,1.0,,,,Practicebloc,List1,4,Button1.png,Button2.png,Button3.png,Button4.png,greenstar2.png,形狀,v,0.0,,0.0,17.0,70127.0,0.0,,0.0,0.0,,,,,,,4.0,1.0,4.0,PracticeTrialProc,PracticeList,1.0,v,1.0,0.0,68592.0,0.0,v,1518.0,,,,,,,,,,,,,,,,,,,,,,,,,,,,,,,,,,,,,,
Wisconsin,1176,1,"<?xml version=""1.0""?>\n<Clock xmlns:dt=""urn:schemas-microsoft-com:datatypes""><Description dt:dt=""string"">E-Prime Primary Realtime Clock</Description><StartTime><Timestamp dt:dt=""int"">0</Timestamp><DateUtc dt:dt=""string"">2023-01-04T01:49:33Z</DateUtc></StartTime><FrequencyChanges><FrequencyChange><Frequency dt:dt=""r8"">2929863</Frequency><Timestamp dt:dt=""r8"">7662298839</Timestamp><Current dt:dt=""r8"">0</Current><DateUtc dt:dt=""string"">2023-01-04T01:49:33Z</DateUtc></FrequencyChange></FrequencyChanges></Clock>\n",Wisconsin-1176-1,59.957,1.0.0.553,1,-927046484,2.0.10.356,2.0.10.356,01-04-2023,1/4/2023 1:49:33 AM,09:49:33,2.0.10.252,1,1.0,1.0,1.0,,,,Practicebloc,List1,5,Button1.png,Button2.png,Button3.png,Button4.png,BlueCross4.png,數目,x,0.0,,0.0,13.0,74046.0,0.0,,0.0,0.0,,,,,,,5.0,1.0,5.0,PracticeTrialProc,PracticeList,1.0,x,0.0,1.0,72679.0,0.0,x,1350.0,,,,,,,,,,,,,,,,,,,,,,,,,,,,,,,,,,,,,,
Wisconsin,1176,1,"<?xml version=""1.0""?>\n<Clock xmlns:dt=""urn:schemas-microsoft-com:datatypes""><Description dt:dt=""string"">E-Prime Primary Realtime Clock</Description><StartTime><Timestamp dt:dt=""int"">0</Timestamp><DateUtc dt:dt=""string"">2023-01-04T01:49:33Z</DateUtc></StartTime><FrequencyChanges><FrequencyChange><Frequency dt:dt=""r8"">2929863</Frequency><Timestamp dt:dt=""r8"">7662298839</Timestamp><Current dt:dt=""r8"">0</Current><DateUtc dt:dt=""string"">2023-01-04T01:49:33Z</DateUtc></FrequencyChange></FrequencyChanges></Clock>\n",Wisconsin-1176-1,59.957,1.0.0.553,1,-927046484,2.0.10.356,2.0.10.356,01-04-2023,1/4/2023 1:49:33 AM,09:49:33,2.0.10.252,1,1.0,1.0,1.0,,,,Practicebloc,List1,6,Button1.png,Button2.png,Button3.png,Button4.png,yellowcircle2.png,數目,z,0.0,,0.0,14.0,77899.0,0.0,,0.0,0.0,,,,,,,6.0,1.0,6.0,PracticeTrialProc,PracticeList,1.0,z,0.0,0.0,76598.0,0.0,z,1287.0,,,,,,,,,,,,,,,,,,,,,,,,,,,,,,,,,,,,,,
Wisconsin,1176,1,"<?xml version=""1.0""?>\n<Clock xmlns:dt=""urn:schemas-microsoft-com:datatypes""><Description dt:dt=""string"">E-Prime Primary Realtime Clock</Description><StartTime><Timestamp dt:dt=""int"">0</Timestamp><DateUtc dt:dt=""string"">2023-01-04T01:49:33Z</DateUtc></StartTime><FrequencyChanges><FrequencyChange><Frequency dt:dt=""r8"">2929863</Frequency><Timestamp dt:dt=""r8"">7662298839</Timestamp><Current dt:dt=""r8"">0</Current><DateUtc dt:dt=""string"">2023-01-04T01:49:33Z</DateUtc></FrequencyChange></FrequencyChanges></Clock>\n",Wisconsin-1176-1,59.957,1.0.0.553,1,-927046484,2.0.10.356,2.0.10.356,01-04-2023,1/4/2023 1:49:33 AM,09:49:33,2.0.10.252,2,,,,1.0,1.0,1.0,BlockProc,List3,1,,,,,,,,,,,,,,,,,2.0,1.0,1.0,,,,,,,NumberProc,List2,,,,,,,,,1.0,Button1.png,Button2.png,Button3.png,Button4.png,Redcircle4.png,,,,,,,x,0.0,6.0,1.0,1.0,,,,0.0,TrialProc,NumberList,,,,,,,1.0,x,0.0,1.0,173819.0,0.0,x,5836.0,number
Wisconsin,1176,1,"<?xml version=""1.0""?>\n<Clock xmlns:dt=""urn:schemas-microsoft-com:datatypes""><Description dt:dt=""string"">E-Prime Primary Realtime Clock</Description><StartTime><Timestamp dt:dt=""int"">0</Timestamp><DateUtc dt:dt=""string"">2023-01-04T01:49:33Z</DateUtc></StartTime><FrequencyChanges><FrequencyChange><Frequency dt:dt=""r8"">2929863</Frequency><Timestamp dt:dt=""r8"">7662298839</Timestamp><Current dt:dt=""r8"">0</Current><DateUtc dt:dt=""string"">2023-01-04T01:49:33Z</DateUtc></FrequencyChange></FrequencyChanges></Clock>\n",Wisconsin-1176-1,59.957,1.0.0.553,1,-927046484,2.0.10.356,2.0.10.356,01-04-2023,1/4/2023 1:49:33 AM,09:49:33,2.0.10.252,2,,,,1.0,1.0,1.0,BlockProc,List3,1,,,,,,,,,,,,,,,,,2.0,1.0,1.0,,,,,,,NumberProc,List2,,,,,,,,,2.0,Button1.png,Button2.png,Button3.png,Button4.png,Redstar2.png,,,,,,,z,0.0,7.0,1.0,2.0,,,,0.0,TrialProc,NumberList,,,,,,,1.0,z,0.0,0.0,182191.0,0.0,z,1192.0,number
Wisconsin,1176,1,"<?xml version=""1.0""?>\n<Clock xmlns:dt=""urn:schemas-microsoft-com:datatypes""><Description dt:dt=""string"">E-Prime Primary Realtime Clock</Description><StartTime><Timestamp dt:dt=""int"">0</Timestamp><DateUtc dt:dt=""string"">2023-01-04T01:49:33Z</DateUtc></StartTime><FrequencyChanges><FrequencyChange><Frequency dt:dt=""r8"">2929863</Frequency><Timestamp dt:dt=""r8"">7662298839</Timestamp><Current dt:dt=""r8"">0</Current><DateUtc dt:dt=""string"">2023-01-04T01:49:33Z</DateUtc></FrequencyChange></FrequencyChanges></Clock>\n",Wisconsin-1176-1,59.957,1.0.0.553,1,-927046484,2.0.10.356,2.0.10.356,01-04-2023,1/4/2023 1:49:33 AM,09:49:33,2.0.10.252,2,,,,1.0,1.0,1.0,BlockProc,List3,1,,,,,,,,,,,,,,,,,2.0,1.0,1.0,,,,,,,NumberProc,List2,,,,,,,,,3.0,Button1.png,Button2.png,Button3.png,Button4.png,Yellowcross3.png,,,,,,,c,0.0,10.0,1.0,3.0,,,,0.0,TrialProc,NumberList,,,,,,,1.0,c,0.0,1.0,185911.0,0.0,c,1376.0,number
Wisconsin,1176,1,"<?xml version=""1.0""?>\n<Clock xmlns:dt=""urn:schemas-microsoft-com:datatypes""><Description dt:dt=""string"">E-Prime Primary Realtime Clock</Description><StartTime><Timestamp dt:dt=""int"">0</Timestamp><DateUtc dt:dt=""string"">2023-01-04T01:49:33Z</DateUtc></StartTime><FrequencyChanges><FrequencyChange><Frequency dt:dt=""r8"">2929863</Frequency><Timestamp dt:dt=""r8"">7662298839</Timestamp><Current dt:dt=""r8"">0</Current><DateUtc dt:dt=""string"">2023-01-04T01:49:33Z</DateUtc></FrequencyChange></FrequencyChanges></Clock>\n",Wisconsin-1176-1,59.957,1.0.0.553,1,-927046484,2.0.10.356,2.0.10.356,01-04-2023,1/4/2023 1:49:33 AM,09:49:33,2.0.10.252,2,,,,1.0,1.0,1.0,BlockProc,List3,1,,,,,,,,,,,,,,,,,2.0,1.0,1.0,,,,,,,NumberProc,List2,,,,,,,,,4.0,Button1.png,Button2.png,Button3.png,Button4.png,Bluecircle4.png,,,,,,,x,0.0,1.0,1.0,4.0,,,,0.0,TrialProc,NumberList,,,,,,,1.0,x,0.0,1.0,189830.0,0.0,x,960.0,number
Wisconsin,1176,1,"<?xml version=""1.0""?>\n<Clock xmlns:dt=""urn:schemas-microsoft-com:datatypes""><Description dt:dt=""string"">E-Prime Primary Realtime Clock</Description><StartTime><Timestamp dt:dt=""int"">0</Timestamp><DateUtc dt:dt=""string"">2023-01-04T01:49:33Z</DateUtc></StartTime><FrequencyChanges><FrequencyChange><Frequency dt:dt=""r8"">2929863</Frequency><Timestamp dt:dt=""r8"">7662298839</Timestamp><Current dt:dt=""r8"">0</Current><DateUtc dt:dt=""string"">2023-01-04T01:49:33Z</DateUtc></FrequencyChange></FrequencyChanges></Clock>\n",Wisconsin-1176-1,59.957,1.0.0.553,1,-927046484,2.0.10.356,2.0.10.356,01-04-2023,1/4/2023 1:49:33 AM,09:49:33,2.0.10.252,2,,,,1.0,1.0,1.0,BlockProc,List3,1,,,,,,,,,,,,,,,,,2.0,1.0,1.0,,,,,,,NumberProc,List2,,,,,,,,,5.0,Button1.png,Button2.png,Button3.png,Button4.png,Greencross3.png,,,,,,,c,0.0,5.0,1.0,5.0,,,,0.0,TrialProc,NumberList,,,,,,,1.0,c,0.0,1.0,193333.0,0.0,c,961.0,number
Wisconsin,1176,1,"<?xml version=""1.0""?>\n<Clock xmlns:dt=""urn:schemas-microsoft-com:datatypes""><Description dt:dt=""string"">E-Prime Primary Realtime Clock</Description><StartTime><Timestamp dt:dt=""int"">0</Timestamp><DateUtc dt:dt=""string"">2023-01-04T01:49:33Z</DateUtc></StartTime><FrequencyChanges><FrequencyChange><Frequency dt:dt=""r8"">2929863</Frequency><Timestamp dt:dt=""r8"">7662298839</Timestamp><Current dt:dt=""r8"">0</Current><DateUtc dt:dt=""string"">2023-01-04T01:49:33Z</DateUtc></FrequencyChange></FrequencyChanges></Clock>\n",Wisconsin-1176-1,59.957,1.0.0.553,1,-927046484,2.0.10.356,2.0.10.356,01-04-2023,1/4/2023 1:49:33 AM,09:49:33,2.0.10.252,2,,,,1.0,1.0,1.0,BlockProc,List3,1,,,,,,,,,,,,,,,,,2.0,1.0,1.0,,,,,,,NumberProc,List2,,,,,,,,,6.0,Button1.png,Button2.png,Button3.png,Button4.png,Bluetriangle1.png,,,,,,,v,0.0,3.0,1.0,6.0,,,,0.0,TrialProc,NumberList,,,,,,,1.0,v,0.0,0.0,196835.0,0.0,v,1123.0,number
Wisconsin,1176,1,"<?xml version=""1.0""?>\n<Clock xmlns:dt=""urn:schemas-microsoft-com:datatypes""><Description dt:dt=""string"">E-Prime Primary Realtime Clock</Description><StartTime><Timestamp dt:dt=""int"">0</Timestamp><DateUtc dt:dt=""string"">2023-01-04T01:49:33Z</DateUtc></StartTime><FrequencyChanges><FrequencyChange><Frequency dt:dt=""r8"">2929863</Frequency><Timestamp dt:dt=""r8"">7662298839</Timestamp><Current dt:dt=""r8"">0</Current><DateUtc dt:dt=""string"">2023-01-04T01:49:33Z</DateUtc></FrequencyChange></FrequencyChanges></Clock>\n",Wisconsin-1176-1,59.957,1.0.0.553,1,-927046484,2.0.10.356,2.0.10.356,01-04-2023,1/4/2023 1:49:33 AM,09:49:33,2.0.10.252,2,,,,1.0,1.0,1.0,BlockProc,List3,1,,,,,,,,,,,,,,,,,2.0,1.0,1.0,,,,,,,NumberProc,List2,,,,,,,,,7.0,Button1.png,Button2.png,Button3.png,Button4.png,Bluestar2.png,,,,,,,z,0.0,2.0,1.0,7.0,,,,0.0,TrialProc,NumberList,,,,,,,1.0,z,0.0,1.0,200488.0,0.0,z,974.0,number
Wisconsin,1176,1,"<?xml version=""1.0""?>\n<Clock xmlns:dt=""urn:schemas-microsoft-com:datatypes""><Description dt:dt=""string"">E-Prime Primary Realtime Clock</Description><StartTime><Timestamp dt:dt=""int"">0</Timestamp><DateUtc dt:dt=""string"">2023-01-04T01:49:33Z</DateUtc></StartTime><FrequencyChanges><FrequencyChange><Frequency dt:dt=""r8"">2929863</Frequency><Timestamp dt:dt=""r8"">7662298839</Timestamp><Current dt:dt=""r8"">0</Current><DateUtc dt:dt=""string"">2023-01-04T01:49:33Z</DateUtc></FrequencyChange></FrequencyChanges></Clock>\n",Wisconsin-1176-1,59.957,1.0.0.553,1,-927046484,2.0.10.356,2.0.10.356,01-04-2023,1/4/2023 1:49:33 AM,09:49:33,2.0.10.252,2,,,,1.0,1.0,1.0,BlockProc,List3,1,,,,,,,,,,,,,,,,,2.0,1.0,1.0,,,,,,,NumberProc,List2,,,,,,,,,8.0,Button1.png,Button2.png,Button3.png,Button4.png,Greencircle4.png,,,,,,,x,0.0,4.0,1.0,8.0,,,,0.0,TrialProc,NumberList,,,,,,,1.0,x,0.0,0.0,203990.0,0.0,x,864.0,number
Wisconsin,1176,1,"<?xml version=""1.0""?>\n<Clock xmlns:dt=""urn:schemas-microsoft-com:datatypes""><Description dt:dt=""string"">E-Prime Primary Realtime Clock</Description><StartTime><Timestamp dt:dt=""int"">0</Timestamp><DateUtc dt:dt=""string"">2023-01-04T01:49:33Z</DateUtc></StartTime><FrequencyChanges><FrequencyChange><Frequency dt:dt=""r8"">2929863</Frequency><Timestamp dt:dt=""r8"">7662298839</Timestamp><Current dt:dt=""r8"">0</Current><DateUtc dt:dt=""string"">2023-01-04T01:49:33Z</DateUtc></FrequencyChange></FrequencyChanges></Clock>\n",Wisconsin-1176-1,59.957,1.0.0.553,1,-927046484,2.0.10.356,2.0.10.356,01-04-2023,1/4/2023 1:49:33 AM,09:49:33,2.0.10.252,2,,,,1.0,1.0,1.0,BlockProc,List3,1,,,,,,,,,,,,,,,,,2.0,1.0,1.0,,,,,,,NumberProc,List2,,,,,,,,,9.0,Button1.png,Button2.png,Button3.png,Button4.png,Redtriangle4.png,,,,,,,x,0.0,8.0,1.0,9.0,,,,0.0,TrialProc,NumberList,,,,,,,1.0,x,0.0,1.0,207393.0,0.0,x,884.0,number
Wisconsin,1176,1,"<?xml version=""1.0""?>\n<Clock xmlns:dt=""urn:schemas-microsoft-com:datatypes""><Description dt:dt=""string"">E-Prime Primary Realtime Clock</Description><StartTime><Timestamp dt:dt=""int"">0</Timestamp><DateUtc dt:dt=""string"">2023-01-04T01:49:33Z</DateUtc></StartTime><FrequencyChanges><FrequencyChange><Frequency dt:dt=""r8"">2929863</Frequency><Timestamp dt:dt=""r8"">7662298839</Timestamp><Current dt:dt=""r8"">0</Current><DateUtc dt:dt=""string"">2023-01-04T01:49:33Z</DateUtc></FrequencyChange></FrequencyChanges></Clock>\n",Wisconsin-1176-1,59.957,1.0.0.553,1,-927046484,2.0.10.356,2.0.10.356,01-04-2023,1/4/2023 1:49:33 AM,09:49:33,2.0.10.252,2,,,,1.0,1.0,1.0,BlockProc,List3,1,,,,,,,,,,,,,,,,,2.0,1.0,1.0,,,,,,,NumberProc,List2,,,,,,,,,10.0,Button1.png,Button2.png,Button3.png,Button4.png,Yellowcross1.png,,,,,,,v,0.0,9.0,1.0,10.0,,,,0.0,TrialProc,NumberList,,,,,,,1.0,v,0.0,1.0,210812.0,0.0,v,985.0,number
Wisconsin,1176,1,"<?xml version=""1.0""?>\n<Clock xmlns:dt=""urn:schemas-microsoft-com:datatypes""><Description dt:dt=""string"">E-Prime Primary Realtime Clock</Description><StartTime><Timestamp dt:dt=""int"">0</Timestamp><DateUtc dt:dt=""string"">2023-01-04T01:49:33Z</DateUtc></StartTime><FrequencyChanges><FrequencyChange><Frequency dt:dt=""r8"">2929863</Frequency><Timestamp dt:dt=""r8"">7662298839</Timestamp><Current dt:dt=""r8"">0</Current><DateUtc dt:dt=""string"">2023-01-04T01:49:33Z</DateUtc></FrequencyChange></FrequencyChanges></Clock>\n",Wisconsin-1176-1,59.957,1.0.0.553,1,-927046484,2.0.10.356,2.0.10.356,01-04-2023,1/4/2023 1:49:33 AM,09:49:33,2.0.10.252,2,,,,1.0,1.0,1.0,BlockProc,List3,2,,,,,,,,,,,,,,,,,1.0,1.0,2.0,,,,,,,ColorProc,List2,,,,,,,,,1.0,BUTTON1.png,BUTTON2.PNG,BUTTON3.png,BUTTON4.png,bluecircle1.png,1.0,1.0,1.0,,,,v,0.0,,,,,,,0.0,TrialProc,ColorList,,,,,,,1.0,v,0.0,1.0,214331.0,0.0,v,1146.0,color
Wisconsin,1176,1,"<?xml version=""1.0""?>\n<Clock xmlns:dt=""urn:schemas-microsoft-com:datatypes""><Description dt:dt=""string"">E-Prime Primary Realtime Clock</Description><StartTime><Timestamp dt:dt=""int"">0</Timestamp><DateUtc dt:dt=""string"">2023-01-04T01:49:33Z</DateUtc></StartTime><FrequencyChanges><FrequencyChange><Frequency dt:dt=""r8"">2929863</Frequency><Timestamp dt:dt=""r8"">7662298839</Timestamp><Current dt:dt=""r8"">0</Current><DateUtc dt:dt=""string"">2023-01-04T01:49:33Z</DateUtc></FrequencyChange></FrequencyChanges></Clock>\n",Wisconsin-1176-1,59.957,1.0.0.553,1,-927046484,2.0.10.356,2.0.10.356,01-04-2023,1/4/2023 1:49:33 AM,09:49:33,2.0.10.252,2,,,,1.0,1.0,1.0,BlockProc,List3,2,,,,,,,,,,,,,,,,,1.0,1.0,2.0,,,,,,,ColorProc,List2,,,,,,,,,2.0,BUTTON1.png,BUTTON2.PNG,BUTTON3.png,BUTTON4.png,redcircle3.png,8.0,1.0,2.0,,,,c,0.0,,,,,,,0.0,TrialProc,ColorList,,,,,,,1.0,c,0.0,1.0,218017.0,0.0,c,1060.0,color
Wisconsin,1176,1,"<?xml version=""1.0""?>\n<Clock xmlns:dt=""urn:schemas-microsoft-com:datatypes""><Description dt:dt=""string"">E-Prime Primary Realtime Clock</Description><StartTime><Timestamp dt:dt=""int"">0</Timestamp><DateUtc dt:dt=""string"">2023-01-04T01:49:33Z</DateUtc></StartTime><FrequencyChanges><FrequencyChange><Frequency dt:dt=""r8"">2929863</Frequency><Timestamp dt:dt=""r8"">7662298839</Timestamp><Current dt:dt=""r8"">0</Current><DateUtc dt:dt=""string"">2023-01-04T01:49:33Z</DateUtc></FrequencyChange></FrequencyChanges></Clock>\n",Wisconsin-1176-1,59.957,1.0.0.553,1,-927046484,2.0.10.356,2.0.10.356,01-04-2023,1/4/2023 1:49:33 AM,09:49:33,2.0.10.252,2,,,,1.0,1.0,1.0,BlockProc,List3,2,,,,,,,,,,,,,,,,,1.0,1.0,2.0,,,,,,,ColorProc,List2,,,,,,,,,3.0,BUTTON1.png,BUTTON2.PNG,BUTTON3.png,BUTTON4.png,greenstar2.png,5.0,1.0,3.0,,,,z,0.0,,,,,,,0.0,TrialProc,ColorList,,,,,,,1.0,z,0.0,1.0,221620.0,0.0,z,816.0,color
Wisconsin,1176,1,"<?xml version=""1.0""?>\n<Clock xmlns:dt=""urn:schemas-microsoft-com:datatypes""><Description dt:dt=""string"">E-Prime Primary Realtime Clock</Description><StartTime><Timestamp dt:dt=""int"">0</Timestamp><DateUtc dt:dt=""string"">2023-01-04T01:49:33Z</DateUtc></StartTime><FrequencyChanges><FrequencyChange><Frequency dt:dt=""r8"">2929863</Frequency><Timestamp dt:dt=""r8"">7662298839</Timestamp><Current dt:dt=""r8"">0</Current><DateUtc dt:dt=""string"">2023-01-04T01:49:33Z</DateUtc></FrequencyChange></FrequencyChanges></Clock>\n",Wisconsin-1176-1,59.957,1.0.0.553,1,-927046484,2.0.10.356,2.0.10.356,01-04-2023,1/4/2023 1:49:33 AM,09:49:33,2.0.10.252,2,,,,1.0,1.0,1.0,BlockProc,List3,2,,,,,,,,,,,,,,,,,1.0,1.0,2.0,,,,,,,ColorProc,List2,,,,,,,,,4.0,BUTTON1.png,BUTTON2.PNG,BUTTON3.png,BUTTON4.png,yellowcircle1.png,9.0,1.0,4.0,,,,x,1.0,,,,,,,0.0,TrialProc,ColorList,,,,,,,0.0,x,0.0,0.0,224972.0,0.0,v,1096.0,color
Wisconsin,1176,1,"<?xml version=""1.0""?>\n<Clock xmlns:dt=""urn:schemas-microsoft-com:datatypes""><Description dt:dt=""string"">E-Prime Primary Realtime Clock</Description><StartTime><Timestamp dt:dt=""int"">0</Timestamp><DateUtc dt:dt=""string"">2023-01-04T01:49:33Z</DateUtc></StartTime><FrequencyChanges><FrequencyChange><Frequency dt:dt=""r8"">2929863</Frequency><Timestamp dt:dt=""r8"">7662298839</Timestamp><Current dt:dt=""r8"">0</Current><DateUtc dt:dt=""string"">2023-01-04T01:49:33Z</DateUtc></FrequencyChange></FrequencyChanges></Clock>\n",Wisconsin-1176-1,59.957,1.0.0.553,1,-927046484,2.0.10.356,2.0.10.356,01-04-2023,1/4/2023 1:49:33 AM,09:49:33,2.0.10.252,2,,,,1.0,1.0,1.0,BlockProc,List3,2,,,,,,,,,,,,,,,,,1.0,1.0,2.0,,,,,,,ColorProc,List2,,,,,,,,,5.0,BUTTON1.png,BUTTON2.PNG,BUTTON3.png,BUTTON4.png,greentriangle1.png,6.0,1.0,5.0,,,,z,1.0,,,,,,,0.0,TrialProc,ColorList,,,,,,,0.0,z,0.0,1.0,228625.0,0.0,x,1683.0,color
Wisconsin,1176,1,"<?xml version=""1.0""?>\n<Clock xmlns:dt=""urn:schemas-microsoft-com:datatypes""><Description dt:dt=""string"">E-Prime Primary Realtime Clock</Description><StartTime><Timestamp dt:dt=""int"">0</Timestamp><DateUtc dt:dt=""string"">2023-01-04T01:49:33Z</DateUtc></StartTime><FrequencyChanges><FrequencyChange><Frequency dt:dt=""r8"">2929863</Frequency><Timestamp dt:dt=""r8"">7662298839</Timestamp><Current dt:dt=""r8"">0</Current><DateUtc dt:dt=""string"">2023-01-04T01:49:33Z</DateUtc></FrequencyChange></FrequencyChanges></Clock>\n",Wisconsin-1176-1,59.957,1.0.0.553,1,-927046484,2.0.10.356,2.0.10.356,01-04-2023,1/4/2023 1:49:33 AM,09:49:33,2.0.10.252,2,,,,1.0,1.0,1.0,BlockProc,List3,2,,,,,,,,,,,,,,,,,1.0,1.0,2.0,,,,,,,ColorProc,List2,,,,,,,,,6.0,BUTTON1.png,BUTTON2.PNG,BUTTON3.png,BUTTON4.png,yellowstar3.png,10.0,1.0,6.0,,,,x,0.0,,,,,,,0.0,TrialProc,ColorList,,,,,,,1.0,x,0.0,1.0,232845.0,0.0,x,1479.0,color
Wisconsin,1176,1,"<?xml version=""1.0""?>\n<Clock xmlns:dt=""urn:schemas-microsoft-com:datatypes""><Description dt:dt=""string"">E-Prime Primary Realtime Clock</Description><StartTime><Timestamp dt:dt=""int"">0</Timestamp><DateUtc dt:dt=""string"">2023-01-04T01:49:33Z</DateUtc></StartTime><FrequencyChanges><FrequencyChange><Frequency dt:dt=""r8"">2929863</Frequency><Timestamp dt:dt=""r8"">7662298839</Timestamp><Current dt:dt=""r8"">0</Current><DateUtc dt:dt=""string"">2023-01-04T01:49:33Z</DateUtc></FrequencyChange></FrequencyChanges></Clock>\n",Wisconsin-1176-1,59.957,1.0.0.553,1,-927046484,2.0.10.356,2.0.10.356,01-04-2023,1/4/2023 1:49:33 AM,09:49:33,2.0.10.252,2,,,,1.0,1.0,1.0,BlockProc,List3,2,,,,,,,,,,,,,,,,,1.0,1.0,2.0,,,,,,,ColorProc,List2,,,,,,,,,7.0,BUTTON1.png,BUTTON2.PNG,BUTTON3.png,BUTTON4.png,greencircle3.png,4.0,1.0,7.0,,,,z,0.0,,,,,,,0.0,TrialProc,ColorList,,,,,,,1.0,z,0.0,1.0,236864.0,0.0,z,1044.0,color
Wisconsin,1176,1,"<?xml version=""1.0""?>\n<Clock xmlns:dt=""urn:schemas-microsoft-com:datatypes""><Description dt:dt=""string"">E-Prime Primary Realtime Clock</Description><StartTime><Timestamp dt:dt=""int"">0</Timestamp><DateUtc dt:dt=""string"">2023-01-04T01:49:33Z</DateUtc></StartTime><FrequencyChanges><FrequencyChange><Frequency dt:dt=""r8"">2929863</Frequency><Timestamp dt:dt=""r8"">7662298839</Timestamp><Current dt:dt=""r8"">0</Current><DateUtc dt:dt=""string"">2023-01-04T01:49:33Z</DateUtc></FrequencyChange></FrequencyChanges></Clock>\n",Wisconsin-1176-1,59.957,1.0.0.553,1,-927046484,2.0.10.356,2.0.10.356,01-04-2023,1/4/2023 1:49:33 AM,09:49:33,2.0.10.252,2,,,,1.0,1.0,1.0,BlockProc,List3,2,,,,,,,,,,,,,,,,,1.0,1.0,2.0,,,,,,,ColorProc,List2,,,,,,,,,8.0,BUTTON1.png,BUTTON2.PNG,BUTTON3.png,BUTTON4.png,bluetriangle3.png,3.0,1.0,8.0,,,,v,0.0,,,,,,,0.0,TrialProc,ColorList,,,,,,,1.0,v,0.0,1.0,240450.0,0.0,v,833.0,color
Wisconsin,1176,1,"<?xml version=""1.0""?>\n<Clock xmlns:dt=""urn:schemas-microsoft-com:datatypes""><Description dt:dt=""string"">E-Prime Primary Realtime Clock</Description><StartTime><Timestamp dt:dt=""int"">0</Timestamp><DateUtc dt:dt=""string"">2023-01-04T01:49:33Z</DateUtc></StartTime><FrequencyChanges><FrequencyChange><Frequency dt:dt=""r8"">2929863</Frequency><Timestamp dt:dt=""r8"">7662298839</Timestamp><Current dt:dt=""r8"">0</Current><DateUtc dt:dt=""string"">2023-01-04T01:49:33Z</DateUtc></FrequencyChange></FrequencyChanges></Clock>\n",Wisconsin-1176-1,59.957,1.0.0.553,1,-927046484,2.0.10.356,2.0.10.356,01-04-2023,1/4/2023 1:49:33 AM,09:49:33,2.0.10.252,2,,,,1.0,1.0,1.0,BlockProc,List3,2,,,,,,,,,,,,,,,,,1.0,1.0,2.0,,,,,,,ColorProc,List2,,,,,,,,,9.0,BUTTON1.png,BUTTON2.PNG,BUTTON3.png,BUTTON4.png,greentriangle3.png,7.0,1.0,9.0,,,,z,0.0,,,,,,,0.0,TrialProc,ColorList,,,,,,,1.0,z,0.0,1.0,243819.0,0.0,z,2072.0,color
Wisconsin,1176,1,"<?xml version=""1.0""?>\n<Clock xmlns:dt=""urn:schemas-microsoft-com:datatypes""><Description dt:dt=""string"">E-Prime Primary Realtime Clock</Description><StartTime><Timestamp dt:dt=""int"">0</Timestamp><DateUtc dt:dt=""string"">2023-01-04T01:49:33Z</DateUtc></StartTime><FrequencyChanges><FrequencyChange><Frequency dt:dt=""r8"">2929863</Frequency><Timestamp dt:dt=""r8"">7662298839</Timestamp><Current dt:dt=""r8"">0</Current><DateUtc dt:dt=""string"">2023-01-04T01:49:33Z</DateUtc></FrequencyChange></FrequencyChanges></Clock>\n",Wisconsin-1176-1,59.957,1.0.0.553,1,-927046484,2.0.10.356,2.0.10.356,01-04-2023,1/4/2023 1:49:33 AM,09:49:33,2.0.10.252,2,,,,1.0,1.0,1.0,BlockProc,List3,2,,,,,,,,,,,,,,,,,1.0,1.0,2.0,,,,,,,ColorProc,List2,,,,,,,,,10.0,BUTTON1.png,BUTTON2.PNG,BUTTON3.png,BUTTON4.png,bluecross2.png,2.0,1.0,10.0,,,,v,0.0,,,,,,,0.0,TrialProc,ColorList,,,,,,,1.0,v,0.0,1.0,248423.0,0.0,v,1116.0,color
Wisconsin,1176,1,"<?xml version=""1.0""?>\n<Clock xmlns:dt=""urn:schemas-microsoft-com:datatypes""><Description dt:dt=""string"">E-Prime Primary Realtime Clock</Description><StartTime><Timestamp dt:dt=""int"">0</Timestamp><DateUtc dt:dt=""string"">2023-01-04T01:49:33Z</DateUtc></StartTime><FrequencyChanges><FrequencyChange><Frequency dt:dt=""r8"">2929863</Frequency><Timestamp dt:dt=""r8"">7662298839</Timestamp><Current dt:dt=""r8"">0</Current><DateUtc dt:dt=""string"">2023-01-04T01:49:33Z</DateUtc></FrequencyChange></FrequencyChanges></Clock>\n",Wisconsin-1176-1,59.957,1.0.0.553,1,-927046484,2.0.10.356,2.0.10.356,01-04-2023,1/4/2023 1:49:33 AM,09:49:33,2.0.10.252,2,,,,1.0,1.0,1.0,BlockProc,List3,3,,,,,,,,,,,,,,,,,3.0,1.0,3.0,,,,,,,ShapeProc,List2,,,,,,,,,1.0,Button1.png,Button2.png,Button3.png,Button4.png,Redcross1.png,,,,,,,c,0.0,,,,,,,0.0,TrialProc,ShapeList,5.0,1.0,1.0,,,,1.0,c,0.0,1.0,252075.0,0.0,c,1352.0,Shape
Wisconsin,1176,1,"<?xml version=""1.0""?>\n<Clock xmlns:dt=""urn:schemas-microsoft-com:datatypes""><Description dt:dt=""string"">E-Prime Primary Realtime Clock</Description><StartTime><Timestamp dt:dt=""int"">0</Timestamp><DateUtc dt:dt=""string"">2023-01-04T01:49:33Z</DateUtc></StartTime><FrequencyChanges><FrequencyChange><Frequency dt:dt=""r8"">2929863</Frequency><Timestamp dt:dt=""r8"">7662298839</Timestamp><Current dt:dt=""r8"">0</Current><DateUtc dt:dt=""string"">2023-01-04T01:49:33Z</DateUtc></FrequencyChange></FrequencyChanges></Clock>\n",Wisconsin-1176-1,59.957,1.0.0.553,1,-927046484,2.0.10.356,2.0.10.356,01-04-2023,1/4/2023 1:49:33 AM,09:49:33,2.0.10.252,2,,,,1.0,1.0,1.0,BlockProc,List3,3,,,,,,,,,,,,,,,,,3.0,1.0,3.0,,,,,,,ShapeProc,List2,,,,,,,,,2.0,Button1.png,Button2.png,Button3.png,Button4.png,Yellowstar1.png,,,,,,,v,1.0,,,,,,,0.0,TrialProc,ShapeList,9.0,1.0,2.0,,,,0.0,v,0.0,0.0,255961.0,0.0,x,889.0,Shape
Wisconsin,1176,1,"<?xml version=""1.0""?>\n<Clock xmlns:dt=""urn:schemas-microsoft-com:datatypes""><Description dt:dt=""string"">E-Prime Primary Realtime Clock</Description><StartTime><Timestamp dt:dt=""int"">0</Timestamp><DateUtc dt:dt=""string"">2023-01-04T01:49:33Z</DateUtc></StartTime><FrequencyChanges><FrequencyChange><Frequency dt:dt=""r8"">2929863</Frequency><Timestamp dt:dt=""r8"">7662298839</Timestamp><Current dt:dt=""r8"">0</Current><DateUtc dt:dt=""string"">2023-01-04T01:49:33Z</DateUtc></FrequencyChange></FrequencyChanges></Clock>\n",Wisconsin-1176-1,59.957,1.0.0.553,1,-927046484,2.0.10.356,2.0.10.356,01-04-2023,1/4/2023 1:49:33 AM,09:49:33,2.0.10.252,2,,,,1.0,1.0,1.0,BlockProc,List3,3,,,,,,,,,,,,,,,,,3.0,1.0,3.0,,,,,,,ShapeProc,List2,,,,,,,,,3.0,Button1.png,Button2.png,Button3.png,Button4.png,Bluecross4.png,,,,,,,c,1.0,,,,,,,0.0,TrialProc,ShapeList,2.0,1.0,3.0,,,,0.0,c,1.0,0.0,259380.0,0.0,x,1550.0,Shape
Wisconsin,1176,1,"<?xml version=""1.0""?>\n<Clock xmlns:dt=""urn:schemas-microsoft-com:datatypes""><Description dt:dt=""string"">E-Prime Primary Realtime Clock</Description><StartTime><Timestamp dt:dt=""int"">0</Timestamp><DateUtc dt:dt=""string"">2023-01-04T01:49:33Z</DateUtc></StartTime><FrequencyChanges><FrequencyChange><Frequency dt:dt=""r8"">2929863</Frequency><Timestamp dt:dt=""r8"">7662298839</Timestamp><Current dt:dt=""r8"">0</Current><DateUtc dt:dt=""string"">2023-01-04T01:49:33Z</DateUtc></FrequencyChange></FrequencyChanges></Clock>\n",Wisconsin-1176-1,59.957,1.0.0.553,1,-927046484,2.0.10.356,2.0.10.356,01-04-2023,1/4/2023 1:49:33 AM,09:49:33,2.0.10.252,2,,,,1.0,1.0,1.0,BlockProc,List3,3,,,,,,,,,,,,,,,,,3.0,1.0,3.0,,,,,,,ShapeProc,List2,,,,,,,,,4.0,Button1.png,Button2.png,Button3.png,Button4.png,Greentriangle4.png,,,,,,,x,1.0,,,,,,,0.0,TrialProc,ShapeList,4.0,1.0,4.0,,,,0.0,x,0.0,1.0,263467.0,0.0,z,1719.0,Shape
Wisconsin,1176,1,"<?xml version=""1.0""?>\n<Clock xmlns:dt=""urn:schemas-microsoft-com:datatypes""><Description dt:dt=""string"">E-Prime Primary Realtime Clock</Description><StartTime><Timestamp dt:dt=""int"">0</Timestamp><DateUtc dt:dt=""string"">2023-01-04T01:49:33Z</DateUtc></StartTime><FrequencyChanges><FrequencyChange><Frequency dt:dt=""r8"">2929863</Frequency><Timestamp dt:dt=""r8"">7662298839</Timestamp><Current dt:dt=""r8"">0</Current><DateUtc dt:dt=""string"">2023-01-04T01:49:33Z</DateUtc></FrequencyChange></FrequencyChanges></Clock>\n",Wisconsin-1176-1,59.957,1.0.0.553,1,-927046484,2.0.10.356,2.0.10.356,01-04-2023,1/4/2023 1:49:33 AM,09:49:33,2.0.10.252,2,,,,1.0,1.0,1.0,BlockProc,List3,3,,,,,,,,,,,,,,,,,3.0,1.0,3.0,,,,,,,ShapeProc,List2,,,,,,,,,5.0,Button1.png,Button2.png,Button3.png,Button4.png,Yellowstar4.png,,,,,,,v,0.0,,,,,,,0.0,TrialProc,ShapeList,10.0,1.0,5.0,,,,1.0,v,0.0,1.0,267720.0,0.0,v,5289.0,Shape
Wisconsin,1176,1,"<?xml version=""1.0""?>\n<Clock xmlns:dt=""urn:schemas-microsoft-com:datatypes""><Description dt:dt=""string"">E-Prime Primary Realtime Clock</Description><StartTime><Timestamp dt:dt=""int"">0</Timestamp><DateUtc dt:dt=""string"">2023-01-04T01:49:33Z</DateUtc></StartTime><FrequencyChanges><FrequencyChange><Frequency dt:dt=""r8"">2929863</Frequency><Timestamp dt:dt=""r8"">7662298839</Timestamp><Current dt:dt=""r8"">0</Current><DateUtc dt:dt=""string"">2023-01-04T01:49:33Z</DateUtc></FrequencyChange></FrequencyChanges></Clock>\n",Wisconsin-1176-1,59.957,1.0.0.553,1,-927046484,2.0.10.356,2.0.10.356,01-04-2023,1/4/2023 1:49:33 AM,09:49:33,2.0.10.252,2,,,,1.0,1.0,1.0,BlockProc,List3,3,,,,,,,,,,,,,,,,,3.0,1.0,3.0,,,,,,,ShapeProc,List2,,,,,,,,,6.0,Button1.png,Button2.png,Button3.png,Button4.png,Bluecircle2.png,,,,,,,z,0.0,,,,,,,0.0,TrialProc,ShapeList,1.0,1.0,6.0,,,,1.0,z,0.0,1.0,275542.0,0.0,z,1195.0,Shape
Wisconsin,1176,1,"<?xml version=""1.0""?>\n<Clock xmlns:dt=""urn:schemas-microsoft-com:datatypes""><Description dt:dt=""string"">E-Prime Primary Realtime Clock</Description><StartTime><Timestamp dt:dt=""int"">0</Timestamp><DateUtc dt:dt=""string"">2023-01-04T01:49:33Z</DateUtc></StartTime><FrequencyChanges><FrequencyChange><Frequency dt:dt=""r8"">2929863</Frequency><Timestamp dt:dt=""r8"">7662298839</Timestamp><Current dt:dt=""r8"">0</Current><DateUtc dt:dt=""string"">2023-01-04T01:49:33Z</DateUtc></FrequencyChange></FrequencyChanges></Clock>\n",Wisconsin-1176-1,59.957,1.0.0.553,1,-927046484,2.0.10.356,2.0.10.356,01-04-2023,1/4/2023 1:49:33 AM,09:49:33,2.0.10.252,2,,,,1.0,1.0,1.0,BlockProc,List3,3,,,,,,,,,,,,,,,,,3.0,1.0,3.0,,,,,,,ShapeProc,List2,,,,,,,,,7.0,Button1.png,Button2.png,Button3.png,Button4.png,Redcross4.png,,,,,,,c,0.0,,,,,,,0.0,TrialProc,ShapeList,6.0,1.0,7.0,,,,1.0,c,0.0,1.0,279278.0,0.0,c,1411.0,Shape
Wisconsin,1176,1,"<?xml version=""1.0""?>\n<Clock xmlns:dt=""urn:schemas-microsoft-com:datatypes""><Description dt:dt=""string"">E-Prime Primary Realtime Clock</Description><StartTime><Timestamp dt:dt=""int"">0</Timestamp><DateUtc dt:dt=""string"">2023-01-04T01:49:33Z</DateUtc></StartTime><FrequencyChanges><FrequencyChange><Frequency dt:dt=""r8"">2929863</Frequency><Timestamp dt:dt=""r8"">7662298839</Timestamp><Current dt:dt=""r8"">0</Current><DateUtc dt:dt=""string"">2023-01-04T01:49:33Z</DateUtc></FrequencyChange></FrequencyChanges></Clock>\n",Wisconsin-1176-1,59.957,1.0.0.553,1,-927046484,2.0.10.356,2.0.10.356,01-04-2023,1/4/2023 1:49:33 AM,09:49:33,2.0.10.252,2,,,,1.0,1.0,1.0,BlockProc,List3,3,,,,,,,,,,,,,,,,,3.0,1.0,3.0,,,,,,,ShapeProc,List2,,,,,,,,,8.0,Button1.png,Button2.png,Button3.png,Button4.png,yellowcircle3.png,,,,,,,z,1.0,,,,,,,0.0,TrialProc,ShapeList,8.0,1.0,8.0,,,,0.0,z,0.0,1.0,283231.0,0.0,x,1298.0,Shape
Wisconsin,1176,1,"<?xml version=""1.0""?>\n<Clock xmlns:dt=""urn:schemas-microsoft-com:datatypes""><Description dt:dt=""string"">E-Prime Primary Realtime Clock</Description><StartTime><Timestamp dt:dt=""int"">0</Timestamp><DateUtc dt:dt=""string"">2023-01-04T01:49:33Z</DateUtc></StartTime><FrequencyChanges><FrequencyChange><Frequency dt:dt=""r8"">2929863</Frequency><Timestamp dt:dt=""r8"">7662298839</Timestamp><Current dt:dt=""r8"">0</Current><DateUtc dt:dt=""string"">2023-01-04T01:49:33Z</DateUtc></FrequencyChange></FrequencyChanges></Clock>\n",Wisconsin-1176-1,59.957,1.0.0.553,1,-927046484,2.0.10.356,2.0.10.356,01-04-2023,1/4/2023 1:49:33 AM,09:49:33,2.0.10.252,2,,,,1.0,1.0,1.0,BlockProc,List3,3,,,,,,,,,,,,,,,,,3.0,1.0,3.0,,,,,,,ShapeProc,List2,,,,,,,,,9.0,Button1.png,Button2.png,Button3.png,Button4.png,Redtriangle1.png,,,,,,,x,0.0,,,,,,,0.0,TrialProc,ShapeList,7.0,1.0,9.0,,,,1.0,x,0.0,1.0,287067.0,0.0,x,1269.0,Shape
Wisconsin,1176,1,"<?xml version=""1.0""?>\n<Clock xmlns:dt=""urn:schemas-microsoft-com:datatypes""><Description dt:dt=""string"">E-Prime Primary Realtime Clock</Description><StartTime><Timestamp dt:dt=""int"">0</Timestamp><DateUtc dt:dt=""string"">2023-01-04T01:49:33Z</DateUtc></StartTime><FrequencyChanges><FrequencyChange><Frequency dt:dt=""r8"">2929863</Frequency><Timestamp dt:dt=""r8"">7662298839</Timestamp><Current dt:dt=""r8"">0</Current><DateUtc dt:dt=""string"">2023-01-04T01:49:33Z</DateUtc></FrequencyChange></FrequencyChanges></Clock>\n",Wisconsin-1176-1,59.957,1.0.0.553,1,-927046484,2.0.10.356,2.0.10.356,01-04-2023,1/4/2023 1:49:33 AM,09:49:33,2.0.10.252,2,,,,1.0,1.0,1.0,BlockProc,List3,3,,,,,,,,,,,,,,,,,3.0,1.0,3.0,,,,,,,ShapeProc,List2,,,,,,,,,10.0,Button1.png,Button2.png,Button3.png,Button4.png,Greencross1.png,,,,,,,c,0.0,,,,,,,0.0,TrialProc,ShapeList,3.0,1.0,10.0,,,,1.0,c,0.0,1.0,290870.0,0.0,c,1098.0,Shape
Wisconsin,1176,1,"<?xml version=""1.0""?>\n<Clock xmlns:dt=""urn:schemas-microsoft-com:datatypes""><Description dt:dt=""string"">E-Prime Primary Realtime Clock</Description><StartTime><Timestamp dt:dt=""int"">0</Timestamp><DateUtc dt:dt=""string"">2023-01-04T01:49:33Z</DateUtc></StartTime><FrequencyChanges><FrequencyChange><Frequency dt:dt=""r8"">2929863</Frequency><Timestamp dt:dt=""r8"">7662298839</Timestamp><Current dt:dt=""r8"">0</Current><DateUtc dt:dt=""string"">2023-01-04T01:49:33Z</DateUtc></FrequencyChange></FrequencyChanges></Clock>\n",Wisconsin-1176-1,59.957,1.0.0.553,1,-927046484,2.0.10.356,2.0.10.356,01-04-2023,1/4/2023 1:49:33 AM,09:49:33,2.0.10.252,3,,,,2.0,1.0,2.0,BlockProc2,List3,1,,,,,,,,,,,,,,,,,,,,2.0,1.0,1.0,,,,NumberProc2,List4,,,,,,,,,1.0,Button1.png,Button2.png,Button3.png,Button4.png,Yellowcross2.png,,,,,,,z,1.0,,,,9.0,1.0,1.0,0.0,TrialProc,NumberList1,,,,,,,0.0,z,0.0,1.0,294506.0,0.0,c,1190.0,number
Wisconsin,1176,1,"<?xml version=""1.0""?>\n<Clock xmlns:dt=""urn:schemas-microsoft-com:datatypes""><Description dt:dt=""string"">E-Prime Primary Realtime Clock</Description><StartTime><Timestamp dt:dt=""int"">0</Timestamp><DateUtc dt:dt=""string"">2023-01-04T01:49:33Z</DateUtc></StartTime><FrequencyChanges><FrequencyChange><Frequency dt:dt=""r8"">2929863</Frequency><Timestamp dt:dt=""r8"">7662298839</Timestamp><Current dt:dt=""r8"">0</Current><DateUtc dt:dt=""string"">2023-01-04T01:49:33Z</DateUtc></FrequencyChange></FrequencyChanges></Clock>\n",Wisconsin-1176-1,59.957,1.0.0.553,1,-927046484,2.0.10.356,2.0.10.356,01-04-2023,1/4/2023 1:49:33 AM,09:49:33,2.0.10.252,3,,,,2.0,1.0,2.0,BlockProc2,List3,1,,,,,,,,,,,,,,,,,,,,2.0,1.0,1.0,,,,NumberProc2,List4,,,,,,,,,2.0,Button1.png,Button2.png,Button3.png,Button4.png,Redstar1.png,,,,,,,v,0.0,,,,6.0,1.0,2.0,0.0,TrialProc,NumberList1,,,,,,,1.0,v,0.0,0.0,298225.0,0.0,v,1167.0,number
Wisconsin,1176,1,"<?xml version=""1.0""?>\n<Clock xmlns:dt=""urn:schemas-microsoft-com:datatypes""><Description dt:dt=""string"">E-Prime Primary Realtime Clock</Description><StartTime><Timestamp dt:dt=""int"">0</Timestamp><DateUtc dt:dt=""string"">2023-01-04T01:49:33Z</DateUtc></StartTime><FrequencyChanges><FrequencyChange><Frequency dt:dt=""r8"">2929863</Frequency><Timestamp dt:dt=""r8"">7662298839</Timestamp><Current dt:dt=""r8"">0</Current><DateUtc dt:dt=""string"">2023-01-04T01:49:33Z</DateUtc></FrequencyChange></FrequencyChanges></Clock>\n",Wisconsin-1176-1,59.957,1.0.0.553,1,-927046484,2.0.10.356,2.0.10.356,01-04-2023,1/4/2023 1:49:33 AM,09:49:33,2.0.10.252,3,,,,2.0,1.0,2.0,BlockProc2,List3,1,,,,,,,,,,,,,,,,,,,,2.0,1.0,1.0,,,,NumberProc2,List4,,,,,,,,,3.0,Button1.png,Button2.png,Button3.png,Button4.png,Bluecross3.png,,,,,,,c,0.0,,,,1.0,1.0,3.0,0.0,TrialProc,NumberList1,,,,,,,1.0,c,0.0,1.0,301928.0,0.0,c,968.0,number
Wisconsin,1176,1,"<?xml version=""1.0""?>\n<Clock xmlns:dt=""urn:schemas-microsoft-com:datatypes""><Description dt:dt=""string"">E-Prime Primary Realtime Clock</Description><StartTime><Timestamp dt:dt=""int"">0</Timestamp><DateUtc dt:dt=""string"">2023-01-04T01:49:33Z</DateUtc></StartTime><FrequencyChanges><FrequencyChange><Frequency dt:dt=""r8"">2929863</Frequency><Timestamp dt:dt=""r8"">7662298839</Timestamp><Current dt:dt=""r8"">0</Current><DateUtc dt:dt=""string"">2023-01-04T01:49:33Z</DateUtc></FrequencyChange></FrequencyChanges></Clock>\n",Wisconsin-1176-1,59.957,1.0.0.553,1,-927046484,2.0.10.356,2.0.10.356,01-04-2023,1/4/2023 1:49:33 AM,09:49:33,2.0.10.252,3,,,,2.0,1.0,2.0,BlockProc2,List3,1,,,,,,,,,,,,,,,,,,,,2.0,1.0,1.0,,,,NumberProc2,List4,,,,,,,,,4.0,Button1.png,Button2.png,Button3.png,Button4.png,yellowcircle4.png,,,,,,,x,1.0,,,,8.0,1.0,4.0,0.0,TrialProc,NumberList1,,,,,,,0.0,x,1.0,0.0,305430.0,0.0,z,857.0,number
Wisconsin,1176,1,"<?xml version=""1.0""?>\n<Clock xmlns:dt=""urn:schemas-microsoft-com:datatypes""><Description dt:dt=""string"">E-Prime Primary Realtime Clock</Description><StartTime><Timestamp dt:dt=""int"">0</Timestamp><DateUtc dt:dt=""string"">2023-01-04T01:49:33Z</DateUtc></StartTime><FrequencyChanges><FrequencyChange><Frequency dt:dt=""r8"">2929863</Frequency><Timestamp dt:dt=""r8"">7662298839</Timestamp><Current dt:dt=""r8"">0</Current><DateUtc dt:dt=""string"">2023-01-04T01:49:33Z</DateUtc></FrequencyChange></FrequencyChanges></Clock>\n",Wisconsin-1176-1,59.957,1.0.0.553,1,-927046484,2.0.10.356,2.0.10.356,01-04-2023,1/4/2023 1:49:33 AM,09:49:33,2.0.10.252,3,,,,2.0,1.0,2.0,BlockProc2,List3,1,,,,,,,,,,,,,,,,,,,,2.0,1.0,1.0,,,,NumberProc2,List4,,,,,,,,,5.0,Button1.png,Button2.png,Button3.png,Button4.png,Redtriangle2.png,,,,,,,z,1.0,,,,7.0,1.0,5.0,0.0,TrialProc,NumberList1,,,,,,,0.0,z,0.0,1.0,308816.0,0.0,x,1103.0,number
Wisconsin,1176,1,"<?xml version=""1.0""?>\n<Clock xmlns:dt=""urn:schemas-microsoft-com:datatypes""><Description dt:dt=""string"">E-Prime Primary Realtime Clock</Description><StartTime><Timestamp dt:dt=""int"">0</Timestamp><DateUtc dt:dt=""string"">2023-01-04T01:49:33Z</DateUtc></StartTime><FrequencyChanges><FrequencyChange><Frequency dt:dt=""r8"">2929863</Frequency><Timestamp dt:dt=""r8"">7662298839</Timestamp><Current dt:dt=""r8"">0</Current><DateUtc dt:dt=""string"">2023-01-04T01:49:33Z</DateUtc></FrequencyChange></FrequencyChanges></Clock>\n",Wisconsin-1176-1,59.957,1.0.0.553,1,-927046484,2.0.10.356,2.0.10.356,01-04-2023,1/4/2023 1:49:33 AM,09:49:33,2.0.10.252,3,,,,2.0,1.0,2.0,BlockProc2,List3,1,,,,,,,,,,,,,,,,,,,,2.0,1.0,1.0,,,,NumberProc2,List4,,,,,,,,,6.0,Button1.png,Button2.png,Button3.png,Button4.png,Greencross2.png,,,,,,,z,0.0,,,,4.0,1.0,6.0,0.0,TrialProc,NumberList1,,,,,,,1.0,z,0.0,1.0,312452.0,0.0,z,939.0,number
Wisconsin,1176,1,"<?xml version=""1.0""?>\n<Clock xmlns:dt=""urn:schemas-microsoft-com:datatypes""><Description dt:dt=""string"">E-Prime Primary Realtime Clock</Description><StartTime><Timestamp dt:dt=""int"">0</Timestamp><DateUtc dt:dt=""string"">2023-01-04T01:49:33Z</DateUtc></StartTime><FrequencyChanges><FrequencyChange><Frequency dt:dt=""r8"">2929863</Frequency><Timestamp dt:dt=""r8"">7662298839</Timestamp><Current dt:dt=""r8"">0</Current><DateUtc dt:dt=""string"">2023-01-04T01:49:33Z</DateUtc></FrequencyChange></FrequencyChanges></Clock>\n",Wisconsin-1176-1,59.957,1.0.0.553,1,-927046484,2.0.10.356,2.0.10.356,01-04-2023,1/4/2023 1:49:33 AM,09:49:33,2.0.10.252,3,,,,2.0,1.0,2.0,BlockProc2,List3,1,,,,,,,,,,,,,,,,,,,,2.0,1.0,1.0,,,,NumberProc2,List4,,,,,,,,,7.0,Button1.png,Button2.png,Button3.png,Button4.png,Yellowtriangle2.png,,,,,,,z,1.0,,,,10.0,1.0,7.0,0.0,TrialProc,NumberList1,,,,,,,0.0,z,0.0,0.0,315921.0,0.0,x,1326.0,number
Wisconsin,1176,1,"<?xml version=""1.0""?>\n<Clock xmlns:dt=""urn:schemas-microsoft-com:datatypes""><Description dt:dt=""string"">E-Prime Primary Realtime Clock</Description><StartTime><Timestamp dt:dt=""int"">0</Timestamp><DateUtc dt:dt=""string"">2023-01-04T01:49:33Z</DateUtc></StartTime><FrequencyChanges><FrequencyChange><Frequency dt:dt=""r8"">2929863</Frequency><Timestamp dt:dt=""r8"">7662298839</Timestamp><Current dt:dt=""r8"">0</Current><DateUtc dt:dt=""string"">2023-01-04T01:49:33Z</DateUtc></FrequencyChange></FrequencyChanges></Clock>\n",Wisconsin-1176-1,59.957,1.0.0.553,1,-927046484,2.0.10.356,2.0.10.356,01-04-2023,1/4/2023 1:49:33 AM,09:49:33,2.0.10.252,3,,,,2.0,1.0,2.0,BlockProc2,List3,1,,,,,,,,,,,,,,,,,,,,2.0,1.0,1.0,,,,NumberProc2,List4,,,,,,,,,8.0,Button1.png,Button2.png,Button3.png,Button4.png,Greenstar1.png,,,,,,,v,0.0,,,,5.0,1.0,8.0,0.0,TrialProc,NumberList1,,,,,,,1.0,v,0.0,1.0,319791.0,0.0,v,1200.0,number
Wisconsin,1176,1,"<?xml version=""1.0""?>\n<Clock xmlns:dt=""urn:schemas-microsoft-com:datatypes""><Description dt:dt=""string"">E-Prime Primary Realtime Clock</Description><StartTime><Timestamp dt:dt=""int"">0</Timestamp><DateUtc dt:dt=""string"">2023-01-04T01:49:33Z</DateUtc></StartTime><FrequencyChanges><FrequencyChange><Frequency dt:dt=""r8"">2929863</Frequency><Timestamp dt:dt=""r8"">7662298839</Timestamp><Current dt:dt=""r8"">0</Current><DateUtc dt:dt=""string"">2023-01-04T01:49:33Z</DateUtc></FrequencyChange></FrequencyChanges></Clock>\n",Wisconsin-1176-1,59.957,1.0.0.553,1,-927046484,2.0.10.356,2.0.10.356,01-04-2023,1/4/2023 1:49:33 AM,09:49:33,2.0.10.252,3,,,,2.0,1.0,2.0,BlockProc2,List3,1,,,,,,,,,,,,,,,,,,,,2.0,1.0,1.0,,,,NumberProc2,List4,,,,,,,,,9.0,Button1.png,Button2.png,Button3.png,Button4.png,Bluestar4.png,,,,,,,x,0.0,,,,2.0,1.0,9.0,0.0,TrialProc,NumberList1,,,,,,,1.0,x,0.0,1.0,323527.0,0.0,x,2103.0,number
Wisconsin,1176,1,"<?xml version=""1.0""?>\n<Clock xmlns:dt=""urn:schemas-microsoft-com:datatypes""><Description dt:dt=""string"">E-Prime Primary Realtime Clock</Description><StartTime><Timestamp dt:dt=""int"">0</Timestamp><DateUtc dt:dt=""string"">2023-01-04T01:49:33Z</DateUtc></StartTime><FrequencyChanges><FrequencyChange><Frequency dt:dt=""r8"">2929863</Frequency><Timestamp dt:dt=""r8"">7662298839</Timestamp><Current dt:dt=""r8"">0</Current><DateUtc dt:dt=""string"">2023-01-04T01:49:33Z</DateUtc></FrequencyChange></FrequencyChanges></Clock>\n",Wisconsin-1176-1,59.957,1.0.0.553,1,-927046484,2.0.10.356,2.0.10.356,01-04-2023,1/4/2023 1:49:33 AM,09:49:33,2.0.10.252,3,,,,2.0,1.0,2.0,BlockProc2,List3,1,,,,,,,,,,,,,,,,,,,,2.0,1.0,1.0,,,,NumberProc2,List4,,,,,,,,,10.0,Button1.png,Button2.png,Button3.png,Button4.png,Bluetriangle4.png,,,,,,,x,0.0,,,,3.0,1.0,10.0,0.0,TrialProc,NumberList1,,,,,,,1.0,x,0.0,1.0,328164.0,0.0,x,986.0,number
Wisconsin,1176,1,"<?xml version=""1.0""?>\n<Clock xmlns:dt=""urn:schemas-microsoft-com:datatypes""><Description dt:dt=""string"">E-Prime Primary Realtime Clock</Description><StartTime><Timestamp dt:dt=""int"">0</Timestamp><DateUtc dt:dt=""string"">2023-01-04T01:49:33Z</DateUtc></StartTime><FrequencyChanges><FrequencyChange><Frequency dt:dt=""r8"">2929863</Frequency><Timestamp dt:dt=""r8"">7662298839</Timestamp><Current dt:dt=""r8"">0</Current><DateUtc dt:dt=""string"">2023-01-04T01:49:33Z</DateUtc></FrequencyChange></FrequencyChanges></Clock>\n",Wisconsin-1176-1,59.957,1.0.0.553,1,-927046484,2.0.10.356,2.0.10.356,01-04-2023,1/4/2023 1:49:33 AM,09:49:33,2.0.10.252,3,,,,2.0,1.0,2.0,BlockProc2,List3,2,,,,,,,,,,,,,,,,,,,,1.0,1.0,2.0,,,,ColorProc2,List4,,,,,,,,,1.0,BUTTON1.png,BUTTON2.PNG,BUTTON3.png,BUTTON4.png,Redcircle2.png,,,,7.0,1.0,1.0,c,1.0,,,,,,,0.0,TrialProc,ColorList2,,,,,,,0.0,c,0.0,1.0,331683.0,0.0,z,1035.0,color
Wisconsin,1176,1,"<?xml version=""1.0""?>\n<Clock xmlns:dt=""urn:schemas-microsoft-com:datatypes""><Description dt:dt=""string"">E-Prime Primary Realtime Clock</Description><StartTime><Timestamp dt:dt=""int"">0</Timestamp><DateUtc dt:dt=""string"">2023-01-04T01:49:33Z</DateUtc></StartTime><FrequencyChanges><FrequencyChange><Frequency dt:dt=""r8"">2929863</Frequency><Timestamp dt:dt=""r8"">7662298839</Timestamp><Current dt:dt=""r8"">0</Current><DateUtc dt:dt=""string"">2023-01-04T01:49:33Z</DateUtc></FrequencyChange></FrequencyChanges></Clock>\n",Wisconsin-1176-1,59.957,1.0.0.553,1,-927046484,2.0.10.356,2.0.10.356,01-04-2023,1/4/2023 1:49:33 AM,09:49:33,2.0.10.252,3,,,,2.0,1.0,2.0,BlockProc2,List3,2,,,,,,,,,,,,,,,,,,,,1.0,1.0,2.0,,,,ColorProc2,List4,,,,,,,,,2.0,BUTTON1.png,BUTTON2.PNG,BUTTON3.png,BUTTON4.png,redstar4.png,,,,8.0,1.0,2.0,c,1.0,,,,,,,0.0,TrialProc,ColorList2,,,,,,,0.0,c,0.0,1.0,335252.0,0.0,v,2714.0,color
Wisconsin,1176,1,"<?xml version=""1.0""?>\n<Clock xmlns:dt=""urn:schemas-microsoft-com:datatypes""><Description dt:dt=""string"">E-Prime Primary Realtime Clock</Description><StartTime><Timestamp dt:dt=""int"">0</Timestamp><DateUtc dt:dt=""string"">2023-01-04T01:49:33Z</DateUtc></StartTime><FrequencyChanges><FrequencyChange><Frequency dt:dt=""r8"">2929863</Frequency><Timestamp dt:dt=""r8"">7662298839</Timestamp><Current dt:dt=""r8"">0</Current><DateUtc dt:dt=""string"">2023-01-04T01:49:33Z</DateUtc></FrequencyChange></FrequencyChanges></Clock>\n",Wisconsin-1176-1,59.957,1.0.0.553,1,-927046484,2.0.10.356,2.0.10.356,01-04-2023,1/4/2023 1:49:33 AM,09:49:33,2.0.10.252,3,,,,2.0,1.0,2.0,BlockProc2,List3,2,,,,,,,,,,,,,,,,,,,,1.0,1.0,2.0,,,,ColorProc2,List4,,,,,,,,,3.0,BUTTON1.png,BUTTON2.PNG,BUTTON3.png,BUTTON4.png,bluecross1.png,,,,1.0,1.0,3.0,v,1.0,,,,,,,0.0,TrialProc,ColorList2,,,,,,,0.0,v,0.0,1.0,340506.0,0.0,c,3315.0,color
Wisconsin,1176,1,"<?xml version=""1.0""?>\n<Clock xmlns:dt=""urn:schemas-microsoft-com:datatypes""><Description dt:dt=""string"">E-Prime Primary Realtime Clock</Description><StartTime><Timestamp dt:dt=""int"">0</Timestamp><DateUtc dt:dt=""string"">2023-01-04T01:49:33Z</DateUtc></StartTime><FrequencyChanges><FrequencyChange><Frequency dt:dt=""r8"">2929863</Frequency><Timestamp dt:dt=""r8"">7662298839</Timestamp><Current dt:dt=""r8"">0</Current><DateUtc dt:dt=""string"">2023-01-04T01:49:33Z</DateUtc></FrequencyChange></FrequencyChanges></Clock>\n",Wisconsin-1176-1,59.957,1.0.0.553,1,-927046484,2.0.10.356,2.0.10.356,01-04-2023,1/4/2023 1:49:33 AM,09:49:33,2.0.10.252,3,,,,2.0,1.0,2.0,BlockProc2,List3,2,,,,,,,,,,,,,,,,,,,,1.0,1.0,2.0,,,,ColorProc2,List4,,,,,,,,,4.0,BUTTON1.png,BUTTON2.PNG,BUTTON3.png,BUTTON4.png,Greencircle1.png,,,,3.0,1.0,4.0,z,0.0,,,,,,,0.0,TrialProc,ColorList2,,,,,,,1.0,z,0.0,1.0,346360.0,0.0,z,597.0,color
Wisconsin,1176,1,"<?xml version=""1.0""?>\n<Clock xmlns:dt=""urn:schemas-microsoft-com:datatypes""><Description dt:dt=""string"">E-Prime Primary Realtime Clock</Description><StartTime><Timestamp dt:dt=""int"">0</Timestamp><DateUtc dt:dt=""string"">2023-01-04T01:49:33Z</DateUtc></StartTime><FrequencyChanges><FrequencyChange><Frequency dt:dt=""r8"">2929863</Frequency><Timestamp dt:dt=""r8"">7662298839</Timestamp><Current dt:dt=""r8"">0</Current><DateUtc dt:dt=""string"">2023-01-04T01:49:33Z</DateUtc></FrequencyChange></FrequencyChanges></Clock>\n",Wisconsin-1176-1,59.957,1.0.0.553,1,-927046484,2.0.10.356,2.0.10.356,01-04-2023,1/4/2023 1:49:33 AM,09:49:33,2.0.10.252,3,,,,2.0,1.0,2.0,BlockProc2,List3,2,,,,,,,,,,,,,,,,,,,,1.0,1.0,2.0,,,,ColorProc2,List4,,,,,,,,,5.0,BUTTON1.png,BUTTON2.PNG,BUTTON3.png,BUTTON4.png,greentriangle2.png,,,,6.0,1.0,5.0,z,1.0,,,,,,,0.0,TrialProc,ColorList2,,,,,,,0.0,z,0.0,1.0,349496.0,0.0,x,1125.0,color
Wisconsin,1176,1,"<?xml version=""1.0""?>\n<Clock xmlns:dt=""urn:schemas-microsoft-com:datatypes""><Description dt:dt=""string"">E-Prime Primary Realtime Clock</Description><StartTime><Timestamp dt:dt=""int"">0</Timestamp><DateUtc dt:dt=""string"">2023-01-04T01:49:33Z</DateUtc></StartTime><FrequencyChanges><FrequencyChange><Frequency dt:dt=""r8"">2929863</Frequency><Timestamp dt:dt=""r8"">7662298839</Timestamp><Current dt:dt=""r8"">0</Current><DateUtc dt:dt=""string"">2023-01-04T01:49:33Z</DateUtc></FrequencyChange></FrequencyChanges></Clock>\n",Wisconsin-1176-1,59.957,1.0.0.553,1,-927046484,2.0.10.356,2.0.10.356,01-04-2023,1/4/2023 1:49:33 AM,09:49:33,2.0.10.252,3,,,,2.0,1.0,2.0,BlockProc2,List3,2,,,,,,,,,,,,,,,,,,,,1.0,1.0,2.0,,,,ColorProc2,List4,,,,,,,,,6.0,BUTTON1.png,BUTTON2.PNG,BUTTON3.png,BUTTON4.png,yellowtriangle3.png,,,,10.0,1.0,6.0,x,0.0,,,,,,,0.0,TrialProc,ColorList2,,,,,,,1.0,x,0.0,1.0,353165.0,0.0,x,1328.0,color
Wisconsin,1176,1,"<?xml version=""1.0""?>\n<Clock xmlns:dt=""urn:schemas-microsoft-com:datatypes""><Description dt:dt=""string"">E-Prime Primary Realtime Clock</Description><StartTime><Timestamp dt:dt=""int"">0</Timestamp><DateUtc dt:dt=""string"">2023-01-04T01:49:33Z</DateUtc></StartTime><FrequencyChanges><FrequencyChange><Frequency dt:dt=""r8"">2929863</Frequency><Timestamp dt:dt=""r8"">7662298839</Timestamp><Current dt:dt=""r8"">0</Current><DateUtc dt:dt=""string"">2023-01-04T01:49:33Z</DateUtc></FrequencyChange></FrequencyChanges></Clock>\n",Wisconsin-1176-1,59.957,1.0.0.553,1,-927046484,2.0.10.356,2.0.10.356,01-04-2023,1/4/2023 1:49:33 AM,09:49:33,2.0.10.252,3,,,,2.0,1.0,2.0,BlockProc2,List3,2,,,,,,,,,,,,,,,,,,,,1.0,1.0,2.0,,,,ColorProc2,List4,,,,,,,,,7.0,BUTTON1.png,BUTTON2.PNG,BUTTON3.png,BUTTON4.png,bluestar3.png,,,,2.0,1.0,7.0,v,0.0,,,,,,,0.0,TrialProc,ColorList2,,,,,,,1.0,v,1.0,0.0,357034.0,0.0,v,1282.0,color
Wisconsin,1176,1,"<?xml version=""1.0""?>\n<Clock xmlns:dt=""urn:schemas-microsoft-com:datatypes""><Description dt:dt=""string"">E-Prime Primary Realtime Clock</Description><StartTime><Timestamp dt:dt=""int"">0</Timestamp><DateUtc dt:dt=""string"">2023-01-04T01:49:33Z</DateUtc></StartTime><FrequencyChanges><FrequencyChange><Frequency dt:dt=""r8"">2929863</Frequency><Timestamp dt:dt=""r8"">7662298839</Timestamp><Current dt:dt=""r8"">0</Current><DateUtc dt:dt=""string"">2023-01-04T01:49:33Z</DateUtc></FrequencyChange></FrequencyChanges></Clock>\n",Wisconsin-1176-1,59.957,1.0.0.553,1,-927046484,2.0.10.356,2.0.10.356,01-04-2023,1/4/2023 1:49:33 AM,09:49:33,2.0.10.252,3,,,,2.0,1.0,2.0,BlockProc2,List3,2,,,,,,,,,,,,,,,,,,,,1.0,1.0,2.0,,,,ColorProc2,List4,,,,,,,,,8.0,BUTTON1.png,BUTTON2.PNG,BUTTON3.png,BUTTON4.png,yellowcircle2.png,,,,9.0,1.0,8.0,x,1.0,,,,,,,0.0,TrialProc,ColorList2,,,,,,,0.0,x,0.0,1.0,360854.0,0.0,z,1158.0,color
Wisconsin,1176,1,"<?xml version=""1.0""?>\n<Clock xmlns:dt=""urn:schemas-microsoft-com:datatypes""><Description dt:dt=""string"">E-Prime Primary Realtime Clock</Description><StartTime><Timestamp dt:dt=""int"">0</Timestamp><DateUtc dt:dt=""string"">2023-01-04T01:49:33Z</DateUtc></StartTime><FrequencyChanges><FrequencyChange><Frequency dt:dt=""r8"">2929863</Frequency><Timestamp dt:dt=""r8"">7662298839</Timestamp><Current dt:dt=""r8"">0</Current><DateUtc dt:dt=""string"">2023-01-04T01:49:33Z</DateUtc></FrequencyChange></FrequencyChanges></Clock>\n",Wisconsin-1176-1,59.957,1.0.0.553,1,-927046484,2.0.10.356,2.0.10.356,01-04-2023,1/4/2023 1:49:33 AM,09:49:33,2.0.10.252,3,,,,2.0,1.0,2.0,BlockProc2,List3,2,,,,,,,,,,,,,,,,,,,,1.0,1.0,2.0,,,,ColorProc2,List4,,,,,,,,,9.0,BUTTON1.png,BUTTON2.PNG,BUTTON3.png,BUTTON4.png,greenstar4.png,,,,5.0,1.0,9.0,z,0.0,,,,,,,0.0,TrialProc,ColorList2,,,,,,,1.0,z,0.0,1.0,364540.0,0.0,z,1264.0,color
Wisconsin,1176,1,"<?xml version=""1.0""?>\n<Clock xmlns:dt=""urn:schemas-microsoft-com:datatypes""><Description dt:dt=""string"">E-Prime Primary Realtime Clock</Description><StartTime><Timestamp dt:dt=""int"">0</Timestamp><DateUtc dt:dt=""string"">2023-01-04T01:49:33Z</DateUtc></StartTime><FrequencyChanges><FrequencyChange><Frequency dt:dt=""r8"">2929863</Frequency><Timestamp dt:dt=""r8"">7662298839</Timestamp><Current dt:dt=""r8"">0</Current><DateUtc dt:dt=""string"">2023-01-04T01:49:33Z</DateUtc></FrequencyChange></FrequencyChanges></Clock>\n",Wisconsin-1176-1,59.957,1.0.0.553,1,-927046484,2.0.10.356,2.0.10.356,01-04-2023,1/4/2023 1:49:33 AM,09:49:33,2.0.10.252,3,,,,2.0,1.0,2.0,BlockProc2,List3,2,,,,,,,,,,,,,,,,,,,,1.0,1.0,2.0,,,,ColorProc2,List4,,,,,,,,,10.0,BUTTON1.png,BUTTON2.PNG,BUTTON3.png,BUTTON4.png,greencross4.png,,,,4.0,1.0,10.0,z,0.0,,,,,,,0.0,TrialProc,ColorList2,,,,,,,1.0,z,0.0,1.0,368343.0,0.0,z,1141.0,color
Wisconsin,1176,1,"<?xml version=""1.0""?>\n<Clock xmlns:dt=""urn:schemas-microsoft-com:datatypes""><Description dt:dt=""string"">E-Prime Primary Realtime Clock</Description><StartTime><Timestamp dt:dt=""int"">0</Timestamp><DateUtc dt:dt=""string"">2023-01-04T01:49:33Z</DateUtc></StartTime><FrequencyChanges><FrequencyChange><Frequency dt:dt=""r8"">2929863</Frequency><Timestamp dt:dt=""r8"">7662298839</Timestamp><Current dt:dt=""r8"">0</Current><DateUtc dt:dt=""string"">2023-01-04T01:49:33Z</DateUtc></FrequencyChange></FrequencyChanges></Clock>\n",Wisconsin-1176-1,59.957,1.0.0.553,1,-927046484,2.0.10.356,2.0.10.356,01-04-2023,1/4/2023 1:49:33 AM,09:49:33,2.0.10.252,3,,,,2.0,1.0,2.0,BlockProc2,List3,3,,,,,,,,,,,,,,,,,,,,3.0,1.0,3.0,,,,ShapeProc2,List4,,,,,,,,,1.0,Button1.png,Button2.png,Button3.png,Button4.png,Bluecircle3.png,,,,,,,z,0.0,,,,,,,0.0,TrialProc,ShapeList1,,,,1.0,1.0,1.0,1.0,z,0.0,1.0,372012.0,0.0,z,1039.0,Shape
Wisconsin,1176,1,"<?xml version=""1.0""?>\n<Clock xmlns:dt=""urn:schemas-microsoft-com:datatypes""><Description dt:dt=""string"">E-Prime Primary Realtime Clock</Description><StartTime><Timestamp dt:dt=""int"">0</Timestamp><DateUtc dt:dt=""string"">2023-01-04T01:49:33Z</DateUtc></StartTime><FrequencyChanges><FrequencyChange><Frequency dt:dt=""r8"">2929863</Frequency><Timestamp dt:dt=""r8"">7662298839</Timestamp><Current dt:dt=""r8"">0</Current><DateUtc dt:dt=""string"">2023-01-04T01:49:33Z</DateUtc></FrequencyChange></FrequencyChanges></Clock>\n",Wisconsin-1176-1,59.957,1.0.0.553,1,-927046484,2.0.10.356,2.0.10.356,01-04-2023,1/4/2023 1:49:33 AM,09:49:33,2.0.10.252,3,,,,2.0,1.0,2.0,BlockProc2,List3,3,,,,,,,,,,,,,,,,,,,,3.0,1.0,3.0,,,,ShapeProc2,List4,,,,,,,,,2.0,Button1.png,Button2.png,Button3.png,Button4.png,Greenstar3.png,,,,,,,v,0.0,,,,,,,0.0,TrialProc,ShapeList1,,,,3.0,1.0,2.0,1.0,v,0.0,1.0,375581.0,0.0,v,2846.0,Shape
Wisconsin,1176,1,"<?xml version=""1.0""?>\n<Clock xmlns:dt=""urn:schemas-microsoft-com:datatypes""><Description dt:dt=""string"">E-Prime Primary Realtime Clock</Description><StartTime><Timestamp dt:dt=""int"">0</Timestamp><DateUtc dt:dt=""string"">2023-01-04T01:49:33Z</DateUtc></StartTime><FrequencyChanges><FrequencyChange><Frequency dt:dt=""r8"">2929863</Frequency><Timestamp dt:dt=""r8"">7662298839</Timestamp><Current dt:dt=""r8"">0</Current><DateUtc dt:dt=""string"">2023-01-04T01:49:33Z</DateUtc></FrequencyChange></FrequencyChanges></Clock>\n",Wisconsin-1176-1,59.957,1.0.0.553,1,-927046484,2.0.10.356,2.0.10.356,01-04-2023,1/4/2023 1:49:33 AM,09:49:33,2.0.10.252,3,,,,2.0,1.0,2.0,BlockProc2,List3,3,,,,,,,,,,,,,,,,,,,,3.0,1.0,3.0,,,,ShapeProc2,List4,,,,,,,,,3.0,Button1.png,Button2.png,Button3.png,Button4.png,Redcross2.png,,,,,,,c,0.0,,,,,,,0.0,TrialProc,ShapeList1,,,,5.0,1.0,3.0,1.0,c,0.0,0.0,380968.0,0.0,c,851.0,Shape
Wisconsin,1176,1,"<?xml version=""1.0""?>\n<Clock xmlns:dt=""urn:schemas-microsoft-com:datatypes""><Description dt:dt=""string"">E-Prime Primary Realtime Clock</Description><StartTime><Timestamp dt:dt=""int"">0</Timestamp><DateUtc dt:dt=""string"">2023-01-04T01:49:33Z</DateUtc></StartTime><FrequencyChanges><FrequencyChange><Frequency dt:dt=""r8"">2929863</Frequency><Timestamp dt:dt=""r8"">7662298839</Timestamp><Current dt:dt=""r8"">0</Current><DateUtc dt:dt=""string"">2023-01-04T01:49:33Z</DateUtc></FrequencyChange></FrequencyChanges></Clock>\n",Wisconsin-1176-1,59.957,1.0.0.553,1,-927046484,2.0.10.356,2.0.10.356,01-04-2023,1/4/2023 1:49:33 AM,09:49:33,2.0.10.252,3,,,,2.0,1.0,2.0,BlockProc2,List3,3,,,,,,,,,,,,,,,,,,,,3.0,1.0,3.0,,,,ShapeProc2,List4,,,,,,,,,4.0,Button1.png,Button2.png,Button3.png,Button4.png,Yellowtriangle1.png,,,,,,,x,0.0,,,,,,,0.0,TrialProc,ShapeList1,,,,10.0,1.0,4.0,1.0,x,0.0,1.0,384354.0,0.0,x,873.0,Shape
Wisconsin,1176,1,"<?xml version=""1.0""?>\n<Clock xmlns:dt=""urn:schemas-microsoft-com:datatypes""><Description dt:dt=""string"">E-Prime Primary Realtime Clock</Description><StartTime><Timestamp dt:dt=""int"">0</Timestamp><DateUtc dt:dt=""string"">2023-01-04T01:49:33Z</DateUtc></StartTime><FrequencyChanges><FrequencyChange><Frequency dt:dt=""r8"">2929863</Frequency><Timestamp dt:dt=""r8"">7662298839</Timestamp><Current dt:dt=""r8"">0</Current><DateUtc dt:dt=""string"">2023-01-04T01:49:33Z</DateUtc></FrequencyChange></FrequencyChanges></Clock>\n",Wisconsin-1176-1,59.957,1.0.0.553,1,-927046484,2.0.10.356,2.0.10.356,01-04-2023,1/4/2023 1:49:33 AM,09:49:33,2.0.10.252,3,,,,2.0,1.0,2.0,BlockProc2,List3,3,,,,,,,,,,,,,,,,,,,,3.0,1.0,3.0,,,,ShapeProc2,List4,,,,,,,,,5.0,Button1.png,Button2.png,Button3.png,Button4.png,yellowcross4.png,,,,,,,c,0.0,,,,,,,0.0,TrialProc,ShapeList1,,,,8.0,1.0,5.0,1.0,c,0.0,1.0,387757.0,0.0,c,1181.0,Shape
Wisconsin,1176,1,"<?xml version=""1.0""?>\n<Clock xmlns:dt=""urn:schemas-microsoft-com:datatypes""><Description dt:dt=""string"">E-Prime Primary Realtime Clock</Description><StartTime><Timestamp dt:dt=""int"">0</Timestamp><DateUtc dt:dt=""string"">2023-01-04T01:49:33Z</DateUtc></StartTime><FrequencyChanges><FrequencyChange><Frequency dt:dt=""r8"">2929863</Frequency><Timestamp dt:dt=""r8"">7662298839</Timestamp><Current dt:dt=""r8"">0</Current><DateUtc dt:dt=""string"">2023-01-04T01:49:33Z</DateUtc></FrequencyChange></FrequencyChanges></Clock>\n",Wisconsin-1176-1,59.957,1.0.0.553,1,-927046484,2.0.10.356,2.0.10.356,01-04-2023,1/4/2023 1:49:33 AM,09:49:33,2.0.10.252,3,,,,2.0,1.0,2.0,BlockProc2,List3,3,,,,,,,,,,,,,,,,,,,,3.0,1.0,3.0,,,,ShapeProc2,List4,,,,,,,,,6.0,Button1.png,Button2.png,Button3.png,Button4.png,Redtriangle3.png,,,,,,,x,0.0,,,,,,,0.0,TrialProc,ShapeList1,,,,7.0,1.0,6.0,1.0,x,0.0,1.0,391476.0,0.0,x,934.0,Shape
Wisconsin,1176,1,"<?xml version=""1.0""?>\n<Clock xmlns:dt=""urn:schemas-microsoft-com:datatypes""><Description dt:dt=""string"">E-Prime Primary Realtime Clock</Description><StartTime><Timestamp dt:dt=""int"">0</Timestamp><DateUtc dt:dt=""string"">2023-01-04T01:49:33Z</DateUtc></StartTime><FrequencyChanges><FrequencyChange><Frequency dt:dt=""r8"">2929863</Frequency><Timestamp dt:dt=""r8"">7662298839</Timestamp><Current dt:dt=""r8"">0</Current><DateUtc dt:dt=""string"">2023-01-04T01:49:33Z</DateUtc></FrequencyChange></FrequencyChanges></Clock>\n",Wisconsin-1176-1,59.957,1.0.0.553,1,-927046484,2.0.10.356,2.0.10.356,01-04-2023,1/4/2023 1:49:33 AM,09:49:33,2.0.10.252,3,,,,2.0,1.0,2.0,BlockProc2,List3,3,,,,,,,,,,,,,,,,,,,,3.0,1.0,3.0,,,,ShapeProc2,List4,,,,,,,,,7.0,Button1.png,Button2.png,Button3.png,Button4.png,Yellowstar2.png,,,,,,,v,0.0,,,,,,,0.0,TrialProc,ShapeList1,,,,9.0,1.0,7.0,1.0,v,0.0,1.0,394945.0,0.0,v,1209.0,Shape
Wisconsin,1176,1,"<?xml version=""1.0""?>\n<Clock xmlns:dt=""urn:schemas-microsoft-com:datatypes""><Description dt:dt=""string"">E-Prime Primary Realtime Clock</Description><StartTime><Timestamp dt:dt=""int"">0</Timestamp><DateUtc dt:dt=""string"">2023-01-04T01:49:33Z</DateUtc></StartTime><FrequencyChanges><FrequencyChange><Frequency dt:dt=""r8"">2929863</Frequency><Timestamp dt:dt=""r8"">7662298839</Timestamp><Current dt:dt=""r8"">0</Current><DateUtc dt:dt=""string"">2023-01-04T01:49:33Z</DateUtc></FrequencyChange></FrequencyChanges></Clock>\n",Wisconsin-1176-1,59.957,1.0.0.553,1,-927046484,2.0.10.356,2.0.10.356,01-04-2023,1/4/2023 1:49:33 AM,09:49:33,2.0.10.252,3,,,,2.0,1.0,2.0,BlockProc2,List3,3,,,,,,,,,,,,,,,,,,,,3.0,1.0,3.0,,,,ShapeProc2,List4,,,,,,,,,8.0,Button1.png,Button2.png,Button3.png,Button4.png,Redstar3.png,,,,,,,v,0.0,,,,,,,0.0,TrialProc,ShapeList1,,,,6.0,1.0,8.0,1.0,v,0.0,1.0,398698.0,0.0,v,1248.0,Shape
Wisconsin,1176,1,"<?xml version=""1.0""?>\n<Clock xmlns:dt=""urn:schemas-microsoft-com:datatypes""><Description dt:dt=""string"">E-Prime Primary Realtime Clock</Description><StartTime><Timestamp dt:dt=""int"">0</Timestamp><DateUtc dt:dt=""string"">2023-01-04T01:49:33Z</DateUtc></StartTime><FrequencyChanges><FrequencyChange><Frequency dt:dt=""r8"">2929863</Frequency><Timestamp dt:dt=""r8"">7662298839</Timestamp><Current dt:dt=""r8"">0</Current><DateUtc dt:dt=""string"">2023-01-04T01:49:33Z</DateUtc></FrequencyChange></FrequencyChanges></Clock>\n",Wisconsin-1176-1,59.957,1.0.0.553,1,-927046484,2.0.10.356,2.0.10.356,01-04-2023,1/4/2023 1:49:33 AM,09:49:33,2.0.10.252,3,,,,2.0,1.0,2.0,BlockProc2,List3,3,,,,,,,,,,,,,,,,,,,,3.0,1.0,3.0,,,,ShapeProc2,List4,,,,,,,,,9.0,Button1.png,Button2.png,Button3.png,Button4.png,redcircle1.png,,,,,,,z,0.0,,,,,,,0.0,TrialProc,ShapeList1,,,,4.0,1.0,9.0,1.0,z,0.0,1.0,402484.0,0.0,z,726.0,Shape
Wisconsin,1176,1,"<?xml version=""1.0""?>\n<Clock xmlns:dt=""urn:schemas-microsoft-com:datatypes""><Description dt:dt=""string"">E-Prime Primary Realtime Clock</Description><StartTime><Timestamp dt:dt=""int"">0</Timestamp><DateUtc dt:dt=""string"">2023-01-04T01:49:33Z</DateUtc></StartTime><FrequencyChanges><FrequencyChange><Frequency dt:dt=""r8"">2929863</Frequency><Timestamp dt:dt=""r8"">7662298839</Timestamp><Current dt:dt=""r8"">0</Current><DateUtc dt:dt=""string"">2023-01-04T01:49:33Z</DateUtc></FrequencyChange></FrequencyChanges></Clock>\n",Wisconsin-1176-1,59.957,1.0.0.553,1,-927046484,2.0.10.356,2.0.10.356,01-04-2023,1/4/2023 1:49:33 AM,09:49:33,2.0.10.252,3,,,,2.0,1.0,2.0,BlockProc2,List3,3,,,,,,,,,,,,,,,,,,,,3.0,1.0,3.0,,,,ShapeProc2,List4,,,,,,,,,10.0,Button1.png,Button2.png,Button3.png,Button4.png,Bluetriangle2.png,,,,,,,x,0.0,,,,,,,0.0,TrialProc,ShapeList1,,,,2.0,1.0,10.0,1.0,x,0.0,1.0,405753.0,0.0,x,1120.0,Shape
