ExperimentName,Subject,Session,Clock.Information,DataFile.Basename,Display.RefreshRate,ExperimentVersion,Group,RandomSeed,RuntimeVersion,RuntimeVersionExpected,SessionDate,SessionStartDateTimeUtc,SessionTime,StudioVersion,Block,List1,List1.Cycle,List1.Sample,List3,List3.Cycle,List3.Sample,Procedure[Block],Running[Block],Trial,CardIMG1[Trial],CardIMG2[Trial],CardIMG3[Trial],CardIMG4[Trial],CardStim[Trial],Category,CorrectAnswer[Trial],FeedbackDisplay2.ACC,FeedbackDisplay2.CRESP,FeedbackDisplay2.DurationError,FeedbackDisplay2.OnsetDelay,FeedbackDisplay2.OnsetTime,FeedbackDisplay2.OnsetToOnsetTime,FeedbackDisplay2.RESP,FeedbackDisplay2.RT,FeedbackDisplay2.RTTime,List2,List2.Cycle,List2.Sample,List4,List4.Cycle,List4.Sample,PracticeList,PracticeList.Cycle,PracticeList.Sample,Procedure[Trial],Running[Trial],Slide5.ACC,Slide5.CRESP,Slide5.DurationError,Slide5.OnsetDelay,Slide5.OnsetTime,Slide5.OnsetToOnsetTime,Slide5.RESP,Slide5.RT,SubTrial,CardIMG1[SubTrial],CardIMG2[SubTrial],CardIMG3[SubTrial],CardIMG4[SubTrial],CardStim[SubTrial],ColorList,ColorList.Cycle,ColorList.Sample,ColorList2,ColorList2.Cycle,ColorList2.Sample,CorrectAnswer[SubTrial],NonPerseverativeError,NumberList,NumberList.Cycle,NumberList.Sample,NumberList1,NumberList1.Cycle,NumberList1.Sample,PerseverativeError,Procedure[SubTrial],Running[SubTrial],ShapeList,ShapeList.Cycle,ShapeList.Sample,ShapeList1,ShapeList1.Cycle,ShapeList1.Sample,Stimulus.ACC,Stimulus.CRESP,Stimulus.DurationError,Stimulus.OnsetDelay,Stimulus.OnsetTime,Stimulus.OnsetToOnsetTime,Stimulus.RESP,Stimulus.RT,TrialType
Wisconsin,1171,1,"<?xml version=""1.0""?>\n<Clock xmlns:dt=""urn:schemas-microsoft-com:datatypes""><Description dt:dt=""string"">E-Prime Primary Realtime Clock</Description><StartTime><Timestamp dt:dt=""int"">0</Timestamp><DateUtc dt:dt=""string"">2022-11-12T07:15:46Z</DateUtc></StartTime><FrequencyChanges><FrequencyChange><Frequency dt:dt=""r8"">2929873</Frequency><Timestamp dt:dt=""r8"">57343128828</Timestamp><Current dt:dt=""r8"">0</Current><DateUtc dt:dt=""string"">2022-11-12T07:15:46Z</DateUtc></FrequencyChange></FrequencyChanges></Clock>\n",Wisconsin-1171-1,59.957,1.0.0.531,1,1509108522,2.0.10.356,2.0.10.356,11-12-2022,11/12/2022 7:15:46 AM,15:15:46,2.0.10.252,1,1.0,1.0,1.0,,,,Practicebloc,List1,1,Button1.png,Button2.png,Button3.png,Button4.png,Greencircle3.png,顏色,z,0.0,,0.0,16.0,60740.0,0.0,,0.0,0.0,,,,,,,1.0,1.0,1.0,PracticeTrialProc,PracticeList,1.0,z,0.0,1.0,59772.0,0.0,z,950.0,,,,,,,,,,,,,,,,,,,,,,,,,,,,,,,,,,,,,,
Wisconsin,1171,1,"<?xml version=""1.0""?>\n<Clock xmlns:dt=""urn:schemas-microsoft-com:datatypes""><Description dt:dt=""string"">E-Prime Primary Realtime Clock</Description><StartTime><Timestamp dt:dt=""int"">0</Timestamp><DateUtc dt:dt=""string"">2022-11-12T07:15:46Z</DateUtc></StartTime><FrequencyChanges><FrequencyChange><Frequency dt:dt=""r8"">2929873</Frequency><Timestamp dt:dt=""r8"">57343128828</Timestamp><Current dt:dt=""r8"">0</Current><DateUtc dt:dt=""string"">2022-11-12T07:15:46Z</DateUtc></FrequencyChange></FrequencyChanges></Clock>\n",Wisconsin-1171-1,59.957,1.0.0.531,1,1509108522,2.0.10.356,2.0.10.356,11-12-2022,11/12/2022 7:15:46 AM,15:15:46,2.0.10.252,1,1.0,1.0,1.0,,,,Practicebloc,List1,2,Button1.png,Button2.png,Button3.png,Button4.png,Redstar2.png,顏色,c,0.0,,0.0,11.0,65726.0,0.0,,0.0,0.0,,,,,,,2.0,1.0,2.0,PracticeTrialProc,PracticeList,1.0,c,0.0,0.0,63291.0,0.0,c,2422.0,,,,,,,,,,,,,,,,,,,,,,,,,,,,,,,,,,,,,,
Wisconsin,1171,1,"<?xml version=""1.0""?>\n<Clock xmlns:dt=""urn:schemas-microsoft-com:datatypes""><Description dt:dt=""string"">E-Prime Primary Realtime Clock</Description><StartTime><Timestamp dt:dt=""int"">0</Timestamp><DateUtc dt:dt=""string"">2022-11-12T07:15:46Z</DateUtc></StartTime><FrequencyChanges><FrequencyChange><Frequency dt:dt=""r8"">2929873</Frequency><Timestamp dt:dt=""r8"">57343128828</Timestamp><Current dt:dt=""r8"">0</Current><DateUtc dt:dt=""string"">2022-11-12T07:15:46Z</DateUtc></FrequencyChange></FrequencyChanges></Clock>\n",Wisconsin-1171-1,59.957,1.0.0.531,1,1509108522,2.0.10.356,2.0.10.356,11-12-2022,11/12/2022 7:15:46 AM,15:15:46,2.0.10.252,1,1.0,1.0,1.0,,,,Practicebloc,List1,3,Button1.png,Button2.png,Button3.png,Button4.png,Bluetriangle1.png,形狀,x,0.0,,0.0,17.0,69846.0,0.0,,0.0,0.0,,,,,,,3.0,1.0,3.0,PracticeTrialProc,PracticeList,0.0,x,0.0,0.0,68278.0,0.0,v,1547.0,,,,,,,,,,,,,,,,,,,,,,,,,,,,,,,,,,,,,,
Wisconsin,1171,1,"<?xml version=""1.0""?>\n<Clock xmlns:dt=""urn:schemas-microsoft-com:datatypes""><Description dt:dt=""string"">E-Prime Primary Realtime Clock</Description><StartTime><Timestamp dt:dt=""int"">0</Timestamp><DateUtc dt:dt=""string"">2022-11-12T07:15:46Z</DateUtc></StartTime><FrequencyChanges><FrequencyChange><Frequency dt:dt=""r8"">2929873</Frequency><Timestamp dt:dt=""r8"">57343128828</Timestamp><Current dt:dt=""r8"">0</Current><DateUtc dt:dt=""string"">2022-11-12T07:15:46Z</DateUtc></FrequencyChange></FrequencyChanges></Clock>\n",Wisconsin-1171-1,59.957,1.0.0.531,1,1509108522,2.0.10.356,2.0.10.356,11-12-2022,11/12/2022 7:15:46 AM,15:15:46,2.0.10.252,1,1.0,1.0,1.0,,,,Practicebloc,List1,4,Button1.png,Button2.png,Button3.png,Button4.png,greenstar2.png,形狀,v,0.0,,0.0,26.0,75150.0,0.0,,0.0,0.0,,,,,,,4.0,1.0,4.0,PracticeTrialProc,PracticeList,1.0,v,0.0,1.0,72398.0,0.0,v,2723.0,,,,,,,,,,,,,,,,,,,,,,,,,,,,,,,,,,,,,,
Wisconsin,1171,1,"<?xml version=""1.0""?>\n<Clock xmlns:dt=""urn:schemas-microsoft-com:datatypes""><Description dt:dt=""string"">E-Prime Primary Realtime Clock</Description><StartTime><Timestamp dt:dt=""int"">0</Timestamp><DateUtc dt:dt=""string"">2022-11-12T07:15:46Z</DateUtc></StartTime><FrequencyChanges><FrequencyChange><Frequency dt:dt=""r8"">2929873</Frequency><Timestamp dt:dt=""r8"">57343128828</Timestamp><Current dt:dt=""r8"">0</Current><DateUtc dt:dt=""string"">2022-11-12T07:15:46Z</DateUtc></FrequencyChange></FrequencyChanges></Clock>\n",Wisconsin-1171-1,59.957,1.0.0.531,1,1509108522,2.0.10.356,2.0.10.356,11-12-2022,11/12/2022 7:15:46 AM,15:15:46,2.0.10.252,1,1.0,1.0,1.0,,,,Practicebloc,List1,5,Button1.png,Button2.png,Button3.png,Button4.png,BlueCross4.png,數目,x,0.0,,0.0,13.0,82305.0,0.0,,0.0,0.0,,,,,,,5.0,1.0,5.0,PracticeTrialProc,PracticeList,0.0,x,0.0,1.0,77702.0,0.0,v,4586.0,,,,,,,,,,,,,,,,,,,,,,,,,,,,,,,,,,,,,,
Wisconsin,1171,1,"<?xml version=""1.0""?>\n<Clock xmlns:dt=""urn:schemas-microsoft-com:datatypes""><Description dt:dt=""string"">E-Prime Primary Realtime Clock</Description><StartTime><Timestamp dt:dt=""int"">0</Timestamp><DateUtc dt:dt=""string"">2022-11-12T07:15:46Z</DateUtc></StartTime><FrequencyChanges><FrequencyChange><Frequency dt:dt=""r8"">2929873</Frequency><Timestamp dt:dt=""r8"">57343128828</Timestamp><Current dt:dt=""r8"">0</Current><DateUtc dt:dt=""string"">2022-11-12T07:15:46Z</DateUtc></FrequencyChange></FrequencyChanges></Clock>\n",Wisconsin-1171-1,59.957,1.0.0.531,1,1509108522,2.0.10.356,2.0.10.356,11-12-2022,11/12/2022 7:15:46 AM,15:15:46,2.0.10.252,1,1.0,1.0,1.0,,,,Practicebloc,List1,6,Button1.png,Button2.png,Button3.png,Button4.png,yellowcircle2.png,數目,z,0.0,,0.0,16.0,86692.0,0.0,,0.0,0.0,,,,,,,6.0,1.0,6.0,PracticeTrialProc,PracticeList,1.0,z,0.0,1.0,84857.0,0.0,z,1815.0,,,,,,,,,,,,,,,,,,,,,,,,,,,,,,,,,,,,,,
Wisconsin,1171,1,"<?xml version=""1.0""?>\n<Clock xmlns:dt=""urn:schemas-microsoft-com:datatypes""><Description dt:dt=""string"">E-Prime Primary Realtime Clock</Description><StartTime><Timestamp dt:dt=""int"">0</Timestamp><DateUtc dt:dt=""string"">2022-11-12T07:15:46Z</DateUtc></StartTime><FrequencyChanges><FrequencyChange><Frequency dt:dt=""r8"">2929873</Frequency><Timestamp dt:dt=""r8"">57343128828</Timestamp><Current dt:dt=""r8"">0</Current><DateUtc dt:dt=""string"">2022-11-12T07:15:46Z</DateUtc></FrequencyChange></FrequencyChanges></Clock>\n",Wisconsin-1171-1,59.957,1.0.0.531,1,1509108522,2.0.10.356,2.0.10.356,11-12-2022,11/12/2022 7:15:46 AM,15:15:46,2.0.10.252,2,,,,1.0,1.0,1.0,BlockProc,List3,1,,,,,,,,,,,,,,,,,1.0,1.0,1.0,,,,,,,ColorProc,List2,,,,,,,,,1.0,BUTTON1.png,BUTTON2.PNG,BUTTON3.png,BUTTON4.png,greenstar2.png,5.0,1.0,1.0,,,,z,1.0,,,,,,,0.0,TrialProc,ColorList,,,,,,,0.0,z,0.0,0.0,140580.0,0.0,v,2057.0,color
Wisconsin,1171,1,"<?xml version=""1.0""?>\n<Clock xmlns:dt=""urn:schemas-microsoft-com:datatypes""><Description dt:dt=""string"">E-Prime Primary Realtime Clock</Description><StartTime><Timestamp dt:dt=""int"">0</Timestamp><DateUtc dt:dt=""string"">2022-11-12T07:15:46Z</DateUtc></StartTime><FrequencyChanges><FrequencyChange><Frequency dt:dt=""r8"">2929873</Frequency><Timestamp dt:dt=""r8"">57343128828</Timestamp><Current dt:dt=""r8"">0</Current><DateUtc dt:dt=""string"">2022-11-12T07:15:46Z</DateUtc></FrequencyChange></FrequencyChanges></Clock>\n",Wisconsin-1171-1,59.957,1.0.0.531,1,1509108522,2.0.10.356,2.0.10.356,11-12-2022,11/12/2022 7:15:46 AM,15:15:46,2.0.10.252,2,,,,1.0,1.0,1.0,BlockProc,List3,1,,,,,,,,,,,,,,,,,1.0,1.0,1.0,,,,,,,ColorProc,List2,,,,,,,,,2.0,BUTTON1.png,BUTTON2.PNG,BUTTON3.png,BUTTON4.png,greentriangle1.png,6.0,1.0,2.0,,,,z,1.0,,,,,,,0.0,TrialProc,ColorList,,,,,,,0.0,z,0.0,1.0,145184.0,0.0,x,2556.0,color
Wisconsin,1171,1,"<?xml version=""1.0""?>\n<Clock xmlns:dt=""urn:schemas-microsoft-com:datatypes""><Description dt:dt=""string"">E-Prime Primary Realtime Clock</Description><StartTime><Timestamp dt:dt=""int"">0</Timestamp><DateUtc dt:dt=""string"">2022-11-12T07:15:46Z</DateUtc></StartTime><FrequencyChanges><FrequencyChange><Frequency dt:dt=""r8"">2929873</Frequency><Timestamp dt:dt=""r8"">57343128828</Timestamp><Current dt:dt=""r8"">0</Current><DateUtc dt:dt=""string"">2022-11-12T07:15:46Z</DateUtc></FrequencyChange></FrequencyChanges></Clock>\n",Wisconsin-1171-1,59.957,1.0.0.531,1,1509108522,2.0.10.356,2.0.10.356,11-12-2022,11/12/2022 7:15:46 AM,15:15:46,2.0.10.252,2,,,,1.0,1.0,1.0,BlockProc,List3,1,,,,,,,,,,,,,,,,,1.0,1.0,1.0,,,,,,,ColorProc,List2,,,,,,,,,3.0,BUTTON1.png,BUTTON2.PNG,BUTTON3.png,BUTTON4.png,bluecross2.png,2.0,1.0,3.0,,,,v,1.0,,,,,,,0.0,TrialProc,ColorList,,,,,,,0.0,v,0.0,1.0,150271.0,0.0,c,3149.0,color
Wisconsin,1171,1,"<?xml version=""1.0""?>\n<Clock xmlns:dt=""urn:schemas-microsoft-com:datatypes""><Description dt:dt=""string"">E-Prime Primary Realtime Clock</Description><StartTime><Timestamp dt:dt=""int"">0</Timestamp><DateUtc dt:dt=""string"">2022-11-12T07:15:46Z</DateUtc></StartTime><FrequencyChanges><FrequencyChange><Frequency dt:dt=""r8"">2929873</Frequency><Timestamp dt:dt=""r8"">57343128828</Timestamp><Current dt:dt=""r8"">0</Current><DateUtc dt:dt=""string"">2022-11-12T07:15:46Z</DateUtc></FrequencyChange></FrequencyChanges></Clock>\n",Wisconsin-1171-1,59.957,1.0.0.531,1,1509108522,2.0.10.356,2.0.10.356,11-12-2022,11/12/2022 7:15:46 AM,15:15:46,2.0.10.252,2,,,,1.0,1.0,1.0,BlockProc,List3,1,,,,,,,,,,,,,,,,,1.0,1.0,1.0,,,,,,,ColorProc,List2,,,,,,,,,4.0,BUTTON1.png,BUTTON2.PNG,BUTTON3.png,BUTTON4.png,greencircle3.png,4.0,1.0,4.0,,,,z,0.0,,,,,,,0.0,TrialProc,ColorList,,,,,,,1.0,z,0.0,1.0,155958.0,0.0,z,790.0,color
Wisconsin,1171,1,"<?xml version=""1.0""?>\n<Clock xmlns:dt=""urn:schemas-microsoft-com:datatypes""><Description dt:dt=""string"">E-Prime Primary Realtime Clock</Description><StartTime><Timestamp dt:dt=""int"">0</Timestamp><DateUtc dt:dt=""string"">2022-11-12T07:15:46Z</DateUtc></StartTime><FrequencyChanges><FrequencyChange><Frequency dt:dt=""r8"">2929873</Frequency><Timestamp dt:dt=""r8"">57343128828</Timestamp><Current dt:dt=""r8"">0</Current><DateUtc dt:dt=""string"">2022-11-12T07:15:46Z</DateUtc></FrequencyChange></FrequencyChanges></Clock>\n",Wisconsin-1171-1,59.957,1.0.0.531,1,1509108522,2.0.10.356,2.0.10.356,11-12-2022,11/12/2022 7:15:46 AM,15:15:46,2.0.10.252,2,,,,1.0,1.0,1.0,BlockProc,List3,1,,,,,,,,,,,,,,,,,1.0,1.0,1.0,,,,,,,ColorProc,List2,,,,,,,,,5.0,BUTTON1.png,BUTTON2.PNG,BUTTON3.png,BUTTON4.png,bluecircle1.png,1.0,1.0,5.0,,,,v,1.0,,,,,,,0.0,TrialProc,ColorList,,,,,,,0.0,v,0.0,1.0,159277.0,0.0,z,1486.0,color
Wisconsin,1171,1,"<?xml version=""1.0""?>\n<Clock xmlns:dt=""urn:schemas-microsoft-com:datatypes""><Description dt:dt=""string"">E-Prime Primary Realtime Clock</Description><StartTime><Timestamp dt:dt=""int"">0</Timestamp><DateUtc dt:dt=""string"">2022-11-12T07:15:46Z</DateUtc></StartTime><FrequencyChanges><FrequencyChange><Frequency dt:dt=""r8"">2929873</Frequency><Timestamp dt:dt=""r8"">57343128828</Timestamp><Current dt:dt=""r8"">0</Current><DateUtc dt:dt=""string"">2022-11-12T07:15:46Z</DateUtc></FrequencyChange></FrequencyChanges></Clock>\n",Wisconsin-1171-1,59.957,1.0.0.531,1,1509108522,2.0.10.356,2.0.10.356,11-12-2022,11/12/2022 7:15:46 AM,15:15:46,2.0.10.252,2,,,,1.0,1.0,1.0,BlockProc,List3,1,,,,,,,,,,,,,,,,,1.0,1.0,1.0,,,,,,,ColorProc,List2,,,,,,,,,6.0,BUTTON1.png,BUTTON2.PNG,BUTTON3.png,BUTTON4.png,greentriangle3.png,7.0,1.0,6.0,,,,z,1.0,,,,,,,0.0,TrialProc,ColorList,,,,,,,0.0,z,0.0,1.0,163297.0,0.0,x,1738.0,color
Wisconsin,1171,1,"<?xml version=""1.0""?>\n<Clock xmlns:dt=""urn:schemas-microsoft-com:datatypes""><Description dt:dt=""string"">E-Prime Primary Realtime Clock</Description><StartTime><Timestamp dt:dt=""int"">0</Timestamp><DateUtc dt:dt=""string"">2022-11-12T07:15:46Z</DateUtc></StartTime><FrequencyChanges><FrequencyChange><Frequency dt:dt=""r8"">2929873</Frequency><Timestamp dt:dt=""r8"">57343128828</Timestamp><Current dt:dt=""r8"">0</Current><DateUtc dt:dt=""string"">2022-11-12T07:15:46Z</DateUtc></FrequencyChange></FrequencyChanges></Clock>\n",Wisconsin-1171-1,59.957,1.0.0.531,1,1509108522,2.0.10.356,2.0.10.356,11-12-2022,11/12/2022 7:15:46 AM,15:15:46,2.0.10.252,2,,,,1.0,1.0,1.0,BlockProc,List3,1,,,,,,,,,,,,,,,,,1.0,1.0,1.0,,,,,,,ColorProc,List2,,,,,,,,,7.0,BUTTON1.png,BUTTON2.PNG,BUTTON3.png,BUTTON4.png,redcircle3.png,8.0,1.0,7.0,,,,c,1.0,,,,,,,0.0,TrialProc,ColorList,,,,,,,0.0,c,1.0,0.0,167566.0,0.0,z,1565.0,color
Wisconsin,1171,1,"<?xml version=""1.0""?>\n<Clock xmlns:dt=""urn:schemas-microsoft-com:datatypes""><Description dt:dt=""string"">E-Prime Primary Realtime Clock</Description><StartTime><Timestamp dt:dt=""int"">0</Timestamp><DateUtc dt:dt=""string"">2022-11-12T07:15:46Z</DateUtc></StartTime><FrequencyChanges><FrequencyChange><Frequency dt:dt=""r8"">2929873</Frequency><Timestamp dt:dt=""r8"">57343128828</Timestamp><Current dt:dt=""r8"">0</Current><DateUtc dt:dt=""string"">2022-11-12T07:15:46Z</DateUtc></FrequencyChange></FrequencyChanges></Clock>\n",Wisconsin-1171-1,59.957,1.0.0.531,1,1509108522,2.0.10.356,2.0.10.356,11-12-2022,11/12/2022 7:15:46 AM,15:15:46,2.0.10.252,2,,,,1.0,1.0,1.0,BlockProc,List3,1,,,,,,,,,,,,,,,,,1.0,1.0,1.0,,,,,,,ColorProc,List2,,,,,,,,,8.0,BUTTON1.png,BUTTON2.PNG,BUTTON3.png,BUTTON4.png,yellowcircle1.png,9.0,1.0,8.0,,,,x,1.0,,,,,,,0.0,TrialProc,ColorList,,,,,,,0.0,x,0.0,0.0,171669.0,0.0,z,1126.0,color
Wisconsin,1171,1,"<?xml version=""1.0""?>\n<Clock xmlns:dt=""urn:schemas-microsoft-com:datatypes""><Description dt:dt=""string"">E-Prime Primary Realtime Clock</Description><StartTime><Timestamp dt:dt=""int"">0</Timestamp><DateUtc dt:dt=""string"">2022-11-12T07:15:46Z</DateUtc></StartTime><FrequencyChanges><FrequencyChange><Frequency dt:dt=""r8"">2929873</Frequency><Timestamp dt:dt=""r8"">57343128828</Timestamp><Current dt:dt=""r8"">0</Current><DateUtc dt:dt=""string"">2022-11-12T07:15:46Z</DateUtc></FrequencyChange></FrequencyChanges></Clock>\n",Wisconsin-1171-1,59.957,1.0.0.531,1,1509108522,2.0.10.356,2.0.10.356,11-12-2022,11/12/2022 7:15:46 AM,15:15:46,2.0.10.252,2,,,,1.0,1.0,1.0,BlockProc,List3,1,,,,,,,,,,,,,,,,,1.0,1.0,1.0,,,,,,,ColorProc,List2,,,,,,,,,9.0,BUTTON1.png,BUTTON2.PNG,BUTTON3.png,BUTTON4.png,yellowstar3.png,10.0,1.0,9.0,,,,x,1.0,,,,,,,0.0,TrialProc,ColorList,,,,,,,0.0,x,0.0,1.0,175322.0,0.0,v,1600.0,color
Wisconsin,1171,1,"<?xml version=""1.0""?>\n<Clock xmlns:dt=""urn:schemas-microsoft-com:datatypes""><Description dt:dt=""string"">E-Prime Primary Realtime Clock</Description><StartTime><Timestamp dt:dt=""int"">0</Timestamp><DateUtc dt:dt=""string"">2022-11-12T07:15:46Z</DateUtc></StartTime><FrequencyChanges><FrequencyChange><Frequency dt:dt=""r8"">2929873</Frequency><Timestamp dt:dt=""r8"">57343128828</Timestamp><Current dt:dt=""r8"">0</Current><DateUtc dt:dt=""string"">2022-11-12T07:15:46Z</DateUtc></FrequencyChange></FrequencyChanges></Clock>\n",Wisconsin-1171-1,59.957,1.0.0.531,1,1509108522,2.0.10.356,2.0.10.356,11-12-2022,11/12/2022 7:15:46 AM,15:15:46,2.0.10.252,2,,,,1.0,1.0,1.0,BlockProc,List3,1,,,,,,,,,,,,,,,,,1.0,1.0,1.0,,,,,,,ColorProc,List2,,,,,,,,,10.0,BUTTON1.png,BUTTON2.PNG,BUTTON3.png,BUTTON4.png,bluetriangle3.png,3.0,1.0,10.0,,,,v,0.0,,,,,,,0.0,TrialProc,ColorList,,,,,,,1.0,v,0.0,0.0,179458.0,0.0,v,2104.0,color
Wisconsin,1171,1,"<?xml version=""1.0""?>\n<Clock xmlns:dt=""urn:schemas-microsoft-com:datatypes""><Description dt:dt=""string"">E-Prime Primary Realtime Clock</Description><StartTime><Timestamp dt:dt=""int"">0</Timestamp><DateUtc dt:dt=""string"">2022-11-12T07:15:46Z</DateUtc></StartTime><FrequencyChanges><FrequencyChange><Frequency dt:dt=""r8"">2929873</Frequency><Timestamp dt:dt=""r8"">57343128828</Timestamp><Current dt:dt=""r8"">0</Current><DateUtc dt:dt=""string"">2022-11-12T07:15:46Z</DateUtc></FrequencyChange></FrequencyChanges></Clock>\n",Wisconsin-1171-1,59.957,1.0.0.531,1,1509108522,2.0.10.356,2.0.10.356,11-12-2022,11/12/2022 7:15:46 AM,15:15:46,2.0.10.252,2,,,,1.0,1.0,1.0,BlockProc,List3,2,,,,,,,,,,,,,,,,,2.0,1.0,2.0,,,,,,,NumberProc,List2,,,,,,,,,1.0,Button1.png,Button2.png,Button3.png,Button4.png,Redstar2.png,,,,,,,z,1.0,7.0,1.0,1.0,,,,0.0,TrialProc,NumberList,,,,,,,0.0,z,0.0,1.0,184095.0,0.0,c,2011.0,number
Wisconsin,1171,1,"<?xml version=""1.0""?>\n<Clock xmlns:dt=""urn:schemas-microsoft-com:datatypes""><Description dt:dt=""string"">E-Prime Primary Realtime Clock</Description><StartTime><Timestamp dt:dt=""int"">0</Timestamp><DateUtc dt:dt=""string"">2022-11-12T07:15:46Z</DateUtc></StartTime><FrequencyChanges><FrequencyChange><Frequency dt:dt=""r8"">2929873</Frequency><Timestamp dt:dt=""r8"">57343128828</Timestamp><Current dt:dt=""r8"">0</Current><DateUtc dt:dt=""string"">2022-11-12T07:15:46Z</DateUtc></FrequencyChange></FrequencyChanges></Clock>\n",Wisconsin-1171-1,59.957,1.0.0.531,1,1509108522,2.0.10.356,2.0.10.356,11-12-2022,11/12/2022 7:15:46 AM,15:15:46,2.0.10.252,2,,,,1.0,1.0,1.0,BlockProc,List3,2,,,,,,,,,,,,,,,,,2.0,1.0,2.0,,,,,,,NumberProc,List2,,,,,,,,,2.0,Button1.png,Button2.png,Button3.png,Button4.png,Yellowcross1.png,,,,,,,v,1.0,9.0,1.0,2.0,,,,0.0,TrialProc,NumberList,,,,,,,0.0,v,0.0,0.0,188648.0,0.0,c,3409.0,number
Wisconsin,1171,1,"<?xml version=""1.0""?>\n<Clock xmlns:dt=""urn:schemas-microsoft-com:datatypes""><Description dt:dt=""string"">E-Prime Primary Realtime Clock</Description><StartTime><Timestamp dt:dt=""int"">0</Timestamp><DateUtc dt:dt=""string"">2022-11-12T07:15:46Z</DateUtc></StartTime><FrequencyChanges><FrequencyChange><Frequency dt:dt=""r8"">2929873</Frequency><Timestamp dt:dt=""r8"">57343128828</Timestamp><Current dt:dt=""r8"">0</Current><DateUtc dt:dt=""string"">2022-11-12T07:15:46Z</DateUtc></FrequencyChange></FrequencyChanges></Clock>\n",Wisconsin-1171-1,59.957,1.0.0.531,1,1509108522,2.0.10.356,2.0.10.356,11-12-2022,11/12/2022 7:15:46 AM,15:15:46,2.0.10.252,2,,,,1.0,1.0,1.0,BlockProc,List3,2,,,,,,,,,,,,,,,,,2.0,1.0,2.0,,,,,,,NumberProc,List2,,,,,,,,,3.0,Button1.png,Button2.png,Button3.png,Button4.png,Bluecircle4.png,,,,,,,x,1.0,1.0,1.0,3.0,,,,0.0,TrialProc,NumberList,,,,,,,0.0,x,0.0,1.0,194586.0,0.0,v,3151.0,number
Wisconsin,1171,1,"<?xml version=""1.0""?>\n<Clock xmlns:dt=""urn:schemas-microsoft-com:datatypes""><Description dt:dt=""string"">E-Prime Primary Realtime Clock</Description><StartTime><Timestamp dt:dt=""int"">0</Timestamp><DateUtc dt:dt=""string"">2022-11-12T07:15:46Z</DateUtc></StartTime><FrequencyChanges><FrequencyChange><Frequency dt:dt=""r8"">2929873</Frequency><Timestamp dt:dt=""r8"">57343128828</Timestamp><Current dt:dt=""r8"">0</Current><DateUtc dt:dt=""string"">2022-11-12T07:15:46Z</DateUtc></FrequencyChange></FrequencyChanges></Clock>\n",Wisconsin-1171-1,59.957,1.0.0.531,1,1509108522,2.0.10.356,2.0.10.356,11-12-2022,11/12/2022 7:15:46 AM,15:15:46,2.0.10.252,2,,,,1.0,1.0,1.0,BlockProc,List3,2,,,,,,,,,,,,,,,,,2.0,1.0,2.0,,,,,,,NumberProc,List2,,,,,,,,,4.0,Button1.png,Button2.png,Button3.png,Button4.png,Greencircle4.png,,,,,,,x,1.0,4.0,1.0,4.0,,,,0.0,TrialProc,NumberList,,,,,,,0.0,x,0.0,0.0,200273.0,0.0,z,712.0,number
Wisconsin,1171,1,"<?xml version=""1.0""?>\n<Clock xmlns:dt=""urn:schemas-microsoft-com:datatypes""><Description dt:dt=""string"">E-Prime Primary Realtime Clock</Description><StartTime><Timestamp dt:dt=""int"">0</Timestamp><DateUtc dt:dt=""string"">2022-11-12T07:15:46Z</DateUtc></StartTime><FrequencyChanges><FrequencyChange><Frequency dt:dt=""r8"">2929873</Frequency><Timestamp dt:dt=""r8"">57343128828</Timestamp><Current dt:dt=""r8"">0</Current><DateUtc dt:dt=""string"">2022-11-12T07:15:46Z</DateUtc></FrequencyChange></FrequencyChanges></Clock>\n",Wisconsin-1171-1,59.957,1.0.0.531,1,1509108522,2.0.10.356,2.0.10.356,11-12-2022,11/12/2022 7:15:46 AM,15:15:46,2.0.10.252,2,,,,1.0,1.0,1.0,BlockProc,List3,2,,,,,,,,,,,,,,,,,2.0,1.0,2.0,,,,,,,NumberProc,List2,,,,,,,,,5.0,Button1.png,Button2.png,Button3.png,Button4.png,Bluestar2.png,,,,,,,z,1.0,2.0,1.0,5.0,,,,0.0,TrialProc,NumberList,,,,,,,0.0,z,0.0,1.0,203526.0,0.0,v,1091.0,number
Wisconsin,1171,1,"<?xml version=""1.0""?>\n<Clock xmlns:dt=""urn:schemas-microsoft-com:datatypes""><Description dt:dt=""string"">E-Prime Primary Realtime Clock</Description><StartTime><Timestamp dt:dt=""int"">0</Timestamp><DateUtc dt:dt=""string"">2022-11-12T07:15:46Z</DateUtc></StartTime><FrequencyChanges><FrequencyChange><Frequency dt:dt=""r8"">2929873</Frequency><Timestamp dt:dt=""r8"">57343128828</Timestamp><Current dt:dt=""r8"">0</Current><DateUtc dt:dt=""string"">2022-11-12T07:15:46Z</DateUtc></FrequencyChange></FrequencyChanges></Clock>\n",Wisconsin-1171-1,59.957,1.0.0.531,1,1509108522,2.0.10.356,2.0.10.356,11-12-2022,11/12/2022 7:15:46 AM,15:15:46,2.0.10.252,2,,,,1.0,1.0,1.0,BlockProc,List3,2,,,,,,,,,,,,,,,,,2.0,1.0,2.0,,,,,,,NumberProc,List2,,,,,,,,,6.0,Button1.png,Button2.png,Button3.png,Button4.png,Yellowcross3.png,,,,,,,c,1.0,10.0,1.0,6.0,,,,0.0,TrialProc,NumberList,,,,,,,0.0,c,0.0,1.0,207145.0,0.0,x,6639.0,number
Wisconsin,1171,1,"<?xml version=""1.0""?>\n<Clock xmlns:dt=""urn:schemas-microsoft-com:datatypes""><Description dt:dt=""string"">E-Prime Primary Realtime Clock</Description><StartTime><Timestamp dt:dt=""int"">0</Timestamp><DateUtc dt:dt=""string"">2022-11-12T07:15:46Z</DateUtc></StartTime><FrequencyChanges><FrequencyChange><Frequency dt:dt=""r8"">2929873</Frequency><Timestamp dt:dt=""r8"">57343128828</Timestamp><Current dt:dt=""r8"">0</Current><DateUtc dt:dt=""string"">2022-11-12T07:15:46Z</DateUtc></FrequencyChange></FrequencyChanges></Clock>\n",Wisconsin-1171-1,59.957,1.0.0.531,1,1509108522,2.0.10.356,2.0.10.356,11-12-2022,11/12/2022 7:15:46 AM,15:15:46,2.0.10.252,2,,,,1.0,1.0,1.0,BlockProc,List3,2,,,,,,,,,,,,,,,,,2.0,1.0,2.0,,,,,,,NumberProc,List2,,,,,,,,,7.0,Button1.png,Button2.png,Button3.png,Button4.png,Greencross3.png,,,,,,,c,0.0,5.0,1.0,7.0,,,,0.0,TrialProc,NumberList,,,,,,,1.0,c,0.0,1.0,216318.0,0.0,c,3370.0,number
Wisconsin,1171,1,"<?xml version=""1.0""?>\n<Clock xmlns:dt=""urn:schemas-microsoft-com:datatypes""><Description dt:dt=""string"">E-Prime Primary Realtime Clock</Description><StartTime><Timestamp dt:dt=""int"">0</Timestamp><DateUtc dt:dt=""string"">2022-11-12T07:15:46Z</DateUtc></StartTime><FrequencyChanges><FrequencyChange><Frequency dt:dt=""r8"">2929873</Frequency><Timestamp dt:dt=""r8"">57343128828</Timestamp><Current dt:dt=""r8"">0</Current><DateUtc dt:dt=""string"">2022-11-12T07:15:46Z</DateUtc></FrequencyChange></FrequencyChanges></Clock>\n",Wisconsin-1171-1,59.957,1.0.0.531,1,1509108522,2.0.10.356,2.0.10.356,11-12-2022,11/12/2022 7:15:46 AM,15:15:46,2.0.10.252,2,,,,1.0,1.0,1.0,BlockProc,List3,2,,,,,,,,,,,,,,,,,2.0,1.0,2.0,,,,,,,NumberProc,List2,,,,,,,,,8.0,Button1.png,Button2.png,Button3.png,Button4.png,Redtriangle4.png,,,,,,,x,1.0,8.0,1.0,8.0,,,,0.0,TrialProc,NumberList,,,,,,,0.0,x,1.0,0.0,222222.0,0.0,c,1865.0,number
Wisconsin,1171,1,"<?xml version=""1.0""?>\n<Clock xmlns:dt=""urn:schemas-microsoft-com:datatypes""><Description dt:dt=""string"">E-Prime Primary Realtime Clock</Description><StartTime><Timestamp dt:dt=""int"">0</Timestamp><DateUtc dt:dt=""string"">2022-11-12T07:15:46Z</DateUtc></StartTime><FrequencyChanges><FrequencyChange><Frequency dt:dt=""r8"">2929873</Frequency><Timestamp dt:dt=""r8"">57343128828</Timestamp><Current dt:dt=""r8"">0</Current><DateUtc dt:dt=""string"">2022-11-12T07:15:46Z</DateUtc></FrequencyChange></FrequencyChanges></Clock>\n",Wisconsin-1171-1,59.957,1.0.0.531,1,1509108522,2.0.10.356,2.0.10.356,11-12-2022,11/12/2022 7:15:46 AM,15:15:46,2.0.10.252,2,,,,1.0,1.0,1.0,BlockProc,List3,2,,,,,,,,,,,,,,,,,2.0,1.0,2.0,,,,,,,NumberProc,List2,,,,,,,,,9.0,Button1.png,Button2.png,Button3.png,Button4.png,Redcircle4.png,,,,,,,x,1.0,6.0,1.0,9.0,,,,0.0,TrialProc,NumberList,,,,,,,0.0,x,0.0,1.0,226626.0,0.0,c,3573.0,number
Wisconsin,1171,1,"<?xml version=""1.0""?>\n<Clock xmlns:dt=""urn:schemas-microsoft-com:datatypes""><Description dt:dt=""string"">E-Prime Primary Realtime Clock</Description><StartTime><Timestamp dt:dt=""int"">0</Timestamp><DateUtc dt:dt=""string"">2022-11-12T07:15:46Z</DateUtc></StartTime><FrequencyChanges><FrequencyChange><Frequency dt:dt=""r8"">2929873</Frequency><Timestamp dt:dt=""r8"">57343128828</Timestamp><Current dt:dt=""r8"">0</Current><DateUtc dt:dt=""string"">2022-11-12T07:15:46Z</DateUtc></FrequencyChange></FrequencyChanges></Clock>\n",Wisconsin-1171-1,59.957,1.0.0.531,1,1509108522,2.0.10.356,2.0.10.356,11-12-2022,11/12/2022 7:15:46 AM,15:15:46,2.0.10.252,2,,,,1.0,1.0,1.0,BlockProc,List3,2,,,,,,,,,,,,,,,,,2.0,1.0,2.0,,,,,,,NumberProc,List2,,,,,,,,,10.0,Button1.png,Button2.png,Button3.png,Button4.png,Bluetriangle1.png,,,,,,,v,0.0,3.0,1.0,10.0,,,,0.0,TrialProc,NumberList,,,,,,,1.0,v,0.0,1.0,232730.0,0.0,v,2397.0,number
Wisconsin,1171,1,"<?xml version=""1.0""?>\n<Clock xmlns:dt=""urn:schemas-microsoft-com:datatypes""><Description dt:dt=""string"">E-Prime Primary Realtime Clock</Description><StartTime><Timestamp dt:dt=""int"">0</Timestamp><DateUtc dt:dt=""string"">2022-11-12T07:15:46Z</DateUtc></StartTime><FrequencyChanges><FrequencyChange><Frequency dt:dt=""r8"">2929873</Frequency><Timestamp dt:dt=""r8"">57343128828</Timestamp><Current dt:dt=""r8"">0</Current><DateUtc dt:dt=""string"">2022-11-12T07:15:46Z</DateUtc></FrequencyChange></FrequencyChanges></Clock>\n",Wisconsin-1171-1,59.957,1.0.0.531,1,1509108522,2.0.10.356,2.0.10.356,11-12-2022,11/12/2022 7:15:46 AM,15:15:46,2.0.10.252,2,,,,1.0,1.0,1.0,BlockProc,List3,3,,,,,,,,,,,,,,,,,3.0,1.0,3.0,,,,,,,ShapeProc,List2,,,,,,,,,1.0,Button1.png,Button2.png,Button3.png,Button4.png,Redtriangle1.png,,,,,,,x,1.0,,,,,,,0.0,TrialProc,ShapeList,7.0,1.0,1.0,,,,0.0,x,0.0,1.0,237667.0,0.0,c,4563.0,Shape
Wisconsin,1171,1,"<?xml version=""1.0""?>\n<Clock xmlns:dt=""urn:schemas-microsoft-com:datatypes""><Description dt:dt=""string"">E-Prime Primary Realtime Clock</Description><StartTime><Timestamp dt:dt=""int"">0</Timestamp><DateUtc dt:dt=""string"">2022-11-12T07:15:46Z</DateUtc></StartTime><FrequencyChanges><FrequencyChange><Frequency dt:dt=""r8"">2929873</Frequency><Timestamp dt:dt=""r8"">57343128828</Timestamp><Current dt:dt=""r8"">0</Current><DateUtc dt:dt=""string"">2022-11-12T07:15:46Z</DateUtc></FrequencyChange></FrequencyChanges></Clock>\n",Wisconsin-1171-1,59.957,1.0.0.531,1,1509108522,2.0.10.356,2.0.10.356,11-12-2022,11/12/2022 7:15:46 AM,15:15:46,2.0.10.252,2,,,,1.0,1.0,1.0,BlockProc,List3,3,,,,,,,,,,,,,,,,,3.0,1.0,3.0,,,,,,,ShapeProc,List2,,,,,,,,,2.0,Button1.png,Button2.png,Button3.png,Button4.png,Yellowstar1.png,,,,,,,v,0.0,,,,,,,0.0,TrialProc,ShapeList,9.0,1.0,2.0,,,,1.0,v,0.0,1.0,244772.0,0.0,v,1170.0,Shape
Wisconsin,1171,1,"<?xml version=""1.0""?>\n<Clock xmlns:dt=""urn:schemas-microsoft-com:datatypes""><Description dt:dt=""string"">E-Prime Primary Realtime Clock</Description><StartTime><Timestamp dt:dt=""int"">0</Timestamp><DateUtc dt:dt=""string"">2022-11-12T07:15:46Z</DateUtc></StartTime><FrequencyChanges><FrequencyChange><Frequency dt:dt=""r8"">2929873</Frequency><Timestamp dt:dt=""r8"">57343128828</Timestamp><Current dt:dt=""r8"">0</Current><DateUtc dt:dt=""string"">2022-11-12T07:15:46Z</DateUtc></FrequencyChange></FrequencyChanges></Clock>\n",Wisconsin-1171-1,59.957,1.0.0.531,1,1509108522,2.0.10.356,2.0.10.356,11-12-2022,11/12/2022 7:15:46 AM,15:15:46,2.0.10.252,2,,,,1.0,1.0,1.0,BlockProc,List3,3,,,,,,,,,,,,,,,,,3.0,1.0,3.0,,,,,,,ShapeProc,List2,,,,,,,,,3.0,Button1.png,Button2.png,Button3.png,Button4.png,Redcross4.png,,,,,,,c,0.0,,,,,,,0.0,TrialProc,ShapeList,6.0,1.0,3.0,,,,1.0,c,0.0,1.0,248475.0,0.0,c,1195.0,Shape
Wisconsin,1171,1,"<?xml version=""1.0""?>\n<Clock xmlns:dt=""urn:schemas-microsoft-com:datatypes""><Description dt:dt=""string"">E-Prime Primary Realtime Clock</Description><StartTime><Timestamp dt:dt=""int"">0</Timestamp><DateUtc dt:dt=""string"">2022-11-12T07:15:46Z</DateUtc></StartTime><FrequencyChanges><FrequencyChange><Frequency dt:dt=""r8"">2929873</Frequency><Timestamp dt:dt=""r8"">57343128828</Timestamp><Current dt:dt=""r8"">0</Current><DateUtc dt:dt=""string"">2022-11-12T07:15:46Z</DateUtc></FrequencyChange></FrequencyChanges></Clock>\n",Wisconsin-1171-1,59.957,1.0.0.531,1,1509108522,2.0.10.356,2.0.10.356,11-12-2022,11/12/2022 7:15:46 AM,15:15:46,2.0.10.252,2,,,,1.0,1.0,1.0,BlockProc,List3,3,,,,,,,,,,,,,,,,,3.0,1.0,3.0,,,,,,,ShapeProc,List2,,,,,,,,,4.0,Button1.png,Button2.png,Button3.png,Button4.png,Yellowstar4.png,,,,,,,v,0.0,,,,,,,0.0,TrialProc,ShapeList,10.0,1.0,4.0,,,,1.0,v,0.0,1.0,252211.0,0.0,v,1363.0,Shape
Wisconsin,1171,1,"<?xml version=""1.0""?>\n<Clock xmlns:dt=""urn:schemas-microsoft-com:datatypes""><Description dt:dt=""string"">E-Prime Primary Realtime Clock</Description><StartTime><Timestamp dt:dt=""int"">0</Timestamp><DateUtc dt:dt=""string"">2022-11-12T07:15:46Z</DateUtc></StartTime><FrequencyChanges><FrequencyChange><Frequency dt:dt=""r8"">2929873</Frequency><Timestamp dt:dt=""r8"">57343128828</Timestamp><Current dt:dt=""r8"">0</Current><DateUtc dt:dt=""string"">2022-11-12T07:15:46Z</DateUtc></FrequencyChange></FrequencyChanges></Clock>\n",Wisconsin-1171-1,59.957,1.0.0.531,1,1509108522,2.0.10.356,2.0.10.356,11-12-2022,11/12/2022 7:15:46 AM,15:15:46,2.0.10.252,2,,,,1.0,1.0,1.0,BlockProc,List3,3,,,,,,,,,,,,,,,,,3.0,1.0,3.0,,,,,,,ShapeProc,List2,,,,,,,,,5.0,Button1.png,Button2.png,Button3.png,Button4.png,Bluecircle2.png,,,,,,,z,0.0,,,,,,,0.0,TrialProc,ShapeList,1.0,1.0,5.0,,,,1.0,z,0.0,1.0,256114.0,0.0,z,1235.0,Shape
Wisconsin,1171,1,"<?xml version=""1.0""?>\n<Clock xmlns:dt=""urn:schemas-microsoft-com:datatypes""><Description dt:dt=""string"">E-Prime Primary Realtime Clock</Description><StartTime><Timestamp dt:dt=""int"">0</Timestamp><DateUtc dt:dt=""string"">2022-11-12T07:15:46Z</DateUtc></StartTime><FrequencyChanges><FrequencyChange><Frequency dt:dt=""r8"">2929873</Frequency><Timestamp dt:dt=""r8"">57343128828</Timestamp><Current dt:dt=""r8"">0</Current><DateUtc dt:dt=""string"">2022-11-12T07:15:46Z</DateUtc></FrequencyChange></FrequencyChanges></Clock>\n",Wisconsin-1171-1,59.957,1.0.0.531,1,1509108522,2.0.10.356,2.0.10.356,11-12-2022,11/12/2022 7:15:46 AM,15:15:46,2.0.10.252,2,,,,1.0,1.0,1.0,BlockProc,List3,3,,,,,,,,,,,,,,,,,3.0,1.0,3.0,,,,,,,ShapeProc,List2,,,,,,,,,6.0,Button1.png,Button2.png,Button3.png,Button4.png,Greentriangle4.png,,,,,,,x,0.0,,,,,,,0.0,TrialProc,ShapeList,4.0,1.0,6.0,,,,1.0,x,0.0,1.0,259883.0,0.0,x,1050.0,Shape
Wisconsin,1171,1,"<?xml version=""1.0""?>\n<Clock xmlns:dt=""urn:schemas-microsoft-com:datatypes""><Description dt:dt=""string"">E-Prime Primary Realtime Clock</Description><StartTime><Timestamp dt:dt=""int"">0</Timestamp><DateUtc dt:dt=""string"">2022-11-12T07:15:46Z</DateUtc></StartTime><FrequencyChanges><FrequencyChange><Frequency dt:dt=""r8"">2929873</Frequency><Timestamp dt:dt=""r8"">57343128828</Timestamp><Current dt:dt=""r8"">0</Current><DateUtc dt:dt=""string"">2022-11-12T07:15:46Z</DateUtc></FrequencyChange></FrequencyChanges></Clock>\n",Wisconsin-1171-1,59.957,1.0.0.531,1,1509108522,2.0.10.356,2.0.10.356,11-12-2022,11/12/2022 7:15:46 AM,15:15:46,2.0.10.252,2,,,,1.0,1.0,1.0,BlockProc,List3,3,,,,,,,,,,,,,,,,,3.0,1.0,3.0,,,,,,,ShapeProc,List2,,,,,,,,,7.0,Button1.png,Button2.png,Button3.png,Button4.png,Bluecross4.png,,,,,,,c,1.0,,,,,,,0.0,TrialProc,ShapeList,2.0,1.0,7.0,,,,0.0,c,0.0,1.0,263469.0,0.0,v,2104.0,Shape
Wisconsin,1171,1,"<?xml version=""1.0""?>\n<Clock xmlns:dt=""urn:schemas-microsoft-com:datatypes""><Description dt:dt=""string"">E-Prime Primary Realtime Clock</Description><StartTime><Timestamp dt:dt=""int"">0</Timestamp><DateUtc dt:dt=""string"">2022-11-12T07:15:46Z</DateUtc></StartTime><FrequencyChanges><FrequencyChange><Frequency dt:dt=""r8"">2929873</Frequency><Timestamp dt:dt=""r8"">57343128828</Timestamp><Current dt:dt=""r8"">0</Current><DateUtc dt:dt=""string"">2022-11-12T07:15:46Z</DateUtc></FrequencyChange></FrequencyChanges></Clock>\n",Wisconsin-1171-1,59.957,1.0.0.531,1,1509108522,2.0.10.356,2.0.10.356,11-12-2022,11/12/2022 7:15:46 AM,15:15:46,2.0.10.252,2,,,,1.0,1.0,1.0,BlockProc,List3,3,,,,,,,,,,,,,,,,,3.0,1.0,3.0,,,,,,,ShapeProc,List2,,,,,,,,,8.0,Button1.png,Button2.png,Button3.png,Button4.png,Redcross1.png,,,,,,,c,0.0,,,,,,,0.0,TrialProc,ShapeList,5.0,1.0,8.0,,,,1.0,c,1.0,0.0,268105.0,0.0,c,1164.0,Shape
Wisconsin,1171,1,"<?xml version=""1.0""?>\n<Clock xmlns:dt=""urn:schemas-microsoft-com:datatypes""><Description dt:dt=""string"">E-Prime Primary Realtime Clock</Description><StartTime><Timestamp dt:dt=""int"">0</Timestamp><DateUtc dt:dt=""string"">2022-11-12T07:15:46Z</DateUtc></StartTime><FrequencyChanges><FrequencyChange><Frequency dt:dt=""r8"">2929873</Frequency><Timestamp dt:dt=""r8"">57343128828</Timestamp><Current dt:dt=""r8"">0</Current><DateUtc dt:dt=""string"">2022-11-12T07:15:46Z</DateUtc></FrequencyChange></FrequencyChanges></Clock>\n",Wisconsin-1171-1,59.957,1.0.0.531,1,1509108522,2.0.10.356,2.0.10.356,11-12-2022,11/12/2022 7:15:46 AM,15:15:46,2.0.10.252,2,,,,1.0,1.0,1.0,BlockProc,List3,3,,,,,,,,,,,,,,,,,3.0,1.0,3.0,,,,,,,ShapeProc,List2,,,,,,,,,9.0,Button1.png,Button2.png,Button3.png,Button4.png,yellowcircle3.png,,,,,,,z,0.0,,,,,,,0.0,TrialProc,ShapeList,8.0,1.0,9.0,,,,1.0,z,0.0,1.0,271808.0,0.0,z,1924.0,Shape
Wisconsin,1171,1,"<?xml version=""1.0""?>\n<Clock xmlns:dt=""urn:schemas-microsoft-com:datatypes""><Description dt:dt=""string"">E-Prime Primary Realtime Clock</Description><StartTime><Timestamp dt:dt=""int"">0</Timestamp><DateUtc dt:dt=""string"">2022-11-12T07:15:46Z</DateUtc></StartTime><FrequencyChanges><FrequencyChange><Frequency dt:dt=""r8"">2929873</Frequency><Timestamp dt:dt=""r8"">57343128828</Timestamp><Current dt:dt=""r8"">0</Current><DateUtc dt:dt=""string"">2022-11-12T07:15:46Z</DateUtc></FrequencyChange></FrequencyChanges></Clock>\n",Wisconsin-1171-1,59.957,1.0.0.531,1,1509108522,2.0.10.356,2.0.10.356,11-12-2022,11/12/2022 7:15:46 AM,15:15:46,2.0.10.252,2,,,,1.0,1.0,1.0,BlockProc,List3,3,,,,,,,,,,,,,,,,,3.0,1.0,3.0,,,,,,,ShapeProc,List2,,,,,,,,,10.0,Button1.png,Button2.png,Button3.png,Button4.png,Greencross1.png,,,,,,,c,1.0,,,,,,,0.0,TrialProc,ShapeList,3.0,1.0,10.0,,,,0.0,c,0.0,0.0,276261.0,0.0,z,2079.0,Shape
Wisconsin,1171,1,"<?xml version=""1.0""?>\n<Clock xmlns:dt=""urn:schemas-microsoft-com:datatypes""><Description dt:dt=""string"">E-Prime Primary Realtime Clock</Description><StartTime><Timestamp dt:dt=""int"">0</Timestamp><DateUtc dt:dt=""string"">2022-11-12T07:15:46Z</DateUtc></StartTime><FrequencyChanges><FrequencyChange><Frequency dt:dt=""r8"">2929873</Frequency><Timestamp dt:dt=""r8"">57343128828</Timestamp><Current dt:dt=""r8"">0</Current><DateUtc dt:dt=""string"">2022-11-12T07:15:46Z</DateUtc></FrequencyChange></FrequencyChanges></Clock>\n",Wisconsin-1171-1,59.957,1.0.0.531,1,1509108522,2.0.10.356,2.0.10.356,11-12-2022,11/12/2022 7:15:46 AM,15:15:46,2.0.10.252,3,,,,2.0,1.0,2.0,BlockProc2,List3,1,,,,,,,,,,,,,,,,,,,,3.0,1.0,1.0,,,,ShapeProc2,List4,,,,,,,,,1.0,Button1.png,Button2.png,Button3.png,Button4.png,Bluecircle3.png,,,,,,,z,0.0,,,,,,,0.0,TrialProc,ShapeList1,,,,1.0,1.0,1.0,1.0,z,0.0,0.0,280881.0,0.0,z,2115.0,Shape
Wisconsin,1171,1,"<?xml version=""1.0""?>\n<Clock xmlns:dt=""urn:schemas-microsoft-com:datatypes""><Description dt:dt=""string"">E-Prime Primary Realtime Clock</Description><StartTime><Timestamp dt:dt=""int"">0</Timestamp><DateUtc dt:dt=""string"">2022-11-12T07:15:46Z</DateUtc></StartTime><FrequencyChanges><FrequencyChange><Frequency dt:dt=""r8"">2929873</Frequency><Timestamp dt:dt=""r8"">57343128828</Timestamp><Current dt:dt=""r8"">0</Current><DateUtc dt:dt=""string"">2022-11-12T07:15:46Z</DateUtc></FrequencyChange></FrequencyChanges></Clock>\n",Wisconsin-1171-1,59.957,1.0.0.531,1,1509108522,2.0.10.356,2.0.10.356,11-12-2022,11/12/2022 7:15:46 AM,15:15:46,2.0.10.252,3,,,,2.0,1.0,2.0,BlockProc2,List3,1,,,,,,,,,,,,,,,,,,,,3.0,1.0,1.0,,,,ShapeProc2,List4,,,,,,,,,2.0,Button1.png,Button2.png,Button3.png,Button4.png,Yellowstar2.png,,,,,,,v,0.0,,,,,,,0.0,TrialProc,ShapeList1,,,,9.0,1.0,2.0,1.0,v,0.0,1.0,285535.0,0.0,v,1028.0,Shape
Wisconsin,1171,1,"<?xml version=""1.0""?>\n<Clock xmlns:dt=""urn:schemas-microsoft-com:datatypes""><Description dt:dt=""string"">E-Prime Primary Realtime Clock</Description><StartTime><Timestamp dt:dt=""int"">0</Timestamp><DateUtc dt:dt=""string"">2022-11-12T07:15:46Z</DateUtc></StartTime><FrequencyChanges><FrequencyChange><Frequency dt:dt=""r8"">2929873</Frequency><Timestamp dt:dt=""r8"">57343128828</Timestamp><Current dt:dt=""r8"">0</Current><DateUtc dt:dt=""string"">2022-11-12T07:15:46Z</DateUtc></FrequencyChange></FrequencyChanges></Clock>\n",Wisconsin-1171-1,59.957,1.0.0.531,1,1509108522,2.0.10.356,2.0.10.356,11-12-2022,11/12/2022 7:15:46 AM,15:15:46,2.0.10.252,3,,,,2.0,1.0,2.0,BlockProc2,List3,1,,,,,,,,,,,,,,,,,,,,3.0,1.0,1.0,,,,ShapeProc2,List4,,,,,,,,,3.0,Button1.png,Button2.png,Button3.png,Button4.png,Greenstar3.png,,,,,,,v,0.0,,,,,,,0.0,TrialProc,ShapeList1,,,,3.0,1.0,3.0,1.0,v,0.0,1.0,289104.0,0.0,v,1091.0,Shape
Wisconsin,1171,1,"<?xml version=""1.0""?>\n<Clock xmlns:dt=""urn:schemas-microsoft-com:datatypes""><Description dt:dt=""string"">E-Prime Primary Realtime Clock</Description><StartTime><Timestamp dt:dt=""int"">0</Timestamp><DateUtc dt:dt=""string"">2022-11-12T07:15:46Z</DateUtc></StartTime><FrequencyChanges><FrequencyChange><Frequency dt:dt=""r8"">2929873</Frequency><Timestamp dt:dt=""r8"">57343128828</Timestamp><Current dt:dt=""r8"">0</Current><DateUtc dt:dt=""string"">2022-11-12T07:15:46Z</DateUtc></FrequencyChange></FrequencyChanges></Clock>\n",Wisconsin-1171-1,59.957,1.0.0.531,1,1509108522,2.0.10.356,2.0.10.356,11-12-2022,11/12/2022 7:15:46 AM,15:15:46,2.0.10.252,3,,,,2.0,1.0,2.0,BlockProc2,List3,1,,,,,,,,,,,,,,,,,,,,3.0,1.0,1.0,,,,ShapeProc2,List4,,,,,,,,,4.0,Button1.png,Button2.png,Button3.png,Button4.png,Bluetriangle2.png,,,,,,,x,1.0,,,,,,,0.0,TrialProc,ShapeList1,,,,2.0,1.0,4.0,0.0,x,0.0,0.0,292723.0,0.0,v,1792.0,Shape
Wisconsin,1171,1,"<?xml version=""1.0""?>\n<Clock xmlns:dt=""urn:schemas-microsoft-com:datatypes""><Description dt:dt=""string"">E-Prime Primary Realtime Clock</Description><StartTime><Timestamp dt:dt=""int"">0</Timestamp><DateUtc dt:dt=""string"">2022-11-12T07:15:46Z</DateUtc></StartTime><FrequencyChanges><FrequencyChange><Frequency dt:dt=""r8"">2929873</Frequency><Timestamp dt:dt=""r8"">57343128828</Timestamp><Current dt:dt=""r8"">0</Current><DateUtc dt:dt=""string"">2022-11-12T07:15:46Z</DateUtc></FrequencyChange></FrequencyChanges></Clock>\n",Wisconsin-1171-1,59.957,1.0.0.531,1,1509108522,2.0.10.356,2.0.10.356,11-12-2022,11/12/2022 7:15:46 AM,15:15:46,2.0.10.252,3,,,,2.0,1.0,2.0,BlockProc2,List3,1,,,,,,,,,,,,,,,,,,,,3.0,1.0,1.0,,,,ShapeProc2,List4,,,,,,,,,5.0,Button1.png,Button2.png,Button3.png,Button4.png,Redcross2.png,,,,,,,c,0.0,,,,,,,0.0,TrialProc,ShapeList1,,,,5.0,1.0,5.0,1.0,c,0.0,1.0,297043.0,0.0,c,992.0,Shape
Wisconsin,1171,1,"<?xml version=""1.0""?>\n<Clock xmlns:dt=""urn:schemas-microsoft-com:datatypes""><Description dt:dt=""string"">E-Prime Primary Realtime Clock</Description><StartTime><Timestamp dt:dt=""int"">0</Timestamp><DateUtc dt:dt=""string"">2022-11-12T07:15:46Z</DateUtc></StartTime><FrequencyChanges><FrequencyChange><Frequency dt:dt=""r8"">2929873</Frequency><Timestamp dt:dt=""r8"">57343128828</Timestamp><Current dt:dt=""r8"">0</Current><DateUtc dt:dt=""string"">2022-11-12T07:15:46Z</DateUtc></FrequencyChange></FrequencyChanges></Clock>\n",Wisconsin-1171-1,59.957,1.0.0.531,1,1509108522,2.0.10.356,2.0.10.356,11-12-2022,11/12/2022 7:15:46 AM,15:15:46,2.0.10.252,3,,,,2.0,1.0,2.0,BlockProc2,List3,1,,,,,,,,,,,,,,,,,,,,3.0,1.0,1.0,,,,ShapeProc2,List4,,,,,,,,,6.0,Button1.png,Button2.png,Button3.png,Button4.png,yellowcross4.png,,,,,,,c,0.0,,,,,,,0.0,TrialProc,ShapeList1,,,,8.0,1.0,6.0,1.0,c,0.0,1.0,300579.0,0.0,c,2735.0,Shape
Wisconsin,1171,1,"<?xml version=""1.0""?>\n<Clock xmlns:dt=""urn:schemas-microsoft-com:datatypes""><Description dt:dt=""string"">E-Prime Primary Realtime Clock</Description><StartTime><Timestamp dt:dt=""int"">0</Timestamp><DateUtc dt:dt=""string"">2022-11-12T07:15:46Z</DateUtc></StartTime><FrequencyChanges><FrequencyChange><Frequency dt:dt=""r8"">2929873</Frequency><Timestamp dt:dt=""r8"">57343128828</Timestamp><Current dt:dt=""r8"">0</Current><DateUtc dt:dt=""string"">2022-11-12T07:15:46Z</DateUtc></FrequencyChange></FrequencyChanges></Clock>\n",Wisconsin-1171-1,59.957,1.0.0.531,1,1509108522,2.0.10.356,2.0.10.356,11-12-2022,11/12/2022 7:15:46 AM,15:15:46,2.0.10.252,3,,,,2.0,1.0,2.0,BlockProc2,List3,1,,,,,,,,,,,,,,,,,,,,3.0,1.0,1.0,,,,ShapeProc2,List4,,,,,,,,,7.0,Button1.png,Button2.png,Button3.png,Button4.png,Redtriangle3.png,,,,,,,x,0.0,,,,,,,0.0,TrialProc,ShapeList1,,,,7.0,1.0,7.0,1.0,x,0.0,0.0,305849.0,0.0,x,3193.0,Shape
Wisconsin,1171,1,"<?xml version=""1.0""?>\n<Clock xmlns:dt=""urn:schemas-microsoft-com:datatypes""><Description dt:dt=""string"">E-Prime Primary Realtime Clock</Description><StartTime><Timestamp dt:dt=""int"">0</Timestamp><DateUtc dt:dt=""string"">2022-11-12T07:15:46Z</DateUtc></StartTime><FrequencyChanges><FrequencyChange><Frequency dt:dt=""r8"">2929873</Frequency><Timestamp dt:dt=""r8"">57343128828</Timestamp><Current dt:dt=""r8"">0</Current><DateUtc dt:dt=""string"">2022-11-12T07:15:46Z</DateUtc></FrequencyChange></FrequencyChanges></Clock>\n",Wisconsin-1171-1,59.957,1.0.0.531,1,1509108522,2.0.10.356,2.0.10.356,11-12-2022,11/12/2022 7:15:46 AM,15:15:46,2.0.10.252,3,,,,2.0,1.0,2.0,BlockProc2,List3,1,,,,,,,,,,,,,,,,,,,,3.0,1.0,1.0,,,,ShapeProc2,List4,,,,,,,,,8.0,Button1.png,Button2.png,Button3.png,Button4.png,Yellowtriangle1.png,,,,,,,x,0.0,,,,,,,0.0,TrialProc,ShapeList1,,,,10.0,1.0,8.0,1.0,x,0.0,1.0,311570.0,0.0,x,1040.0,Shape
Wisconsin,1171,1,"<?xml version=""1.0""?>\n<Clock xmlns:dt=""urn:schemas-microsoft-com:datatypes""><Description dt:dt=""string"">E-Prime Primary Realtime Clock</Description><StartTime><Timestamp dt:dt=""int"">0</Timestamp><DateUtc dt:dt=""string"">2022-11-12T07:15:46Z</DateUtc></StartTime><FrequencyChanges><FrequencyChange><Frequency dt:dt=""r8"">2929873</Frequency><Timestamp dt:dt=""r8"">57343128828</Timestamp><Current dt:dt=""r8"">0</Current><DateUtc dt:dt=""string"">2022-11-12T07:15:46Z</DateUtc></FrequencyChange></FrequencyChanges></Clock>\n",Wisconsin-1171-1,59.957,1.0.0.531,1,1509108522,2.0.10.356,2.0.10.356,11-12-2022,11/12/2022 7:15:46 AM,15:15:46,2.0.10.252,3,,,,2.0,1.0,2.0,BlockProc2,List3,1,,,,,,,,,,,,,,,,,,,,3.0,1.0,1.0,,,,ShapeProc2,List4,,,,,,,,,9.0,Button1.png,Button2.png,Button3.png,Button4.png,Redstar3.png,,,,,,,v,0.0,,,,,,,0.0,TrialProc,ShapeList1,,,,6.0,1.0,9.0,1.0,v,0.0,0.0,315139.0,0.0,v,1039.0,Shape
Wisconsin,1171,1,"<?xml version=""1.0""?>\n<Clock xmlns:dt=""urn:schemas-microsoft-com:datatypes""><Description dt:dt=""string"">E-Prime Primary Realtime Clock</Description><StartTime><Timestamp dt:dt=""int"">0</Timestamp><DateUtc dt:dt=""string"">2022-11-12T07:15:46Z</DateUtc></StartTime><FrequencyChanges><FrequencyChange><Frequency dt:dt=""r8"">2929873</Frequency><Timestamp dt:dt=""r8"">57343128828</Timestamp><Current dt:dt=""r8"">0</Current><DateUtc dt:dt=""string"">2022-11-12T07:15:46Z</DateUtc></FrequencyChange></FrequencyChanges></Clock>\n",Wisconsin-1171-1,59.957,1.0.0.531,1,1509108522,2.0.10.356,2.0.10.356,11-12-2022,11/12/2022 7:15:46 AM,15:15:46,2.0.10.252,3,,,,2.0,1.0,2.0,BlockProc2,List3,1,,,,,,,,,,,,,,,,,,,,3.0,1.0,1.0,,,,ShapeProc2,List4,,,,,,,,,10.0,Button1.png,Button2.png,Button3.png,Button4.png,redcircle1.png,,,,,,,z,0.0,,,,,,,0.0,TrialProc,ShapeList1,,,,4.0,1.0,10.0,1.0,z,0.0,1.0,318709.0,0.0,z,972.0,Shape
Wisconsin,1171,1,"<?xml version=""1.0""?>\n<Clock xmlns:dt=""urn:schemas-microsoft-com:datatypes""><Description dt:dt=""string"">E-Prime Primary Realtime Clock</Description><StartTime><Timestamp dt:dt=""int"">0</Timestamp><DateUtc dt:dt=""string"">2022-11-12T07:15:46Z</DateUtc></StartTime><FrequencyChanges><FrequencyChange><Frequency dt:dt=""r8"">2929873</Frequency><Timestamp dt:dt=""r8"">57343128828</Timestamp><Current dt:dt=""r8"">0</Current><DateUtc dt:dt=""string"">2022-11-12T07:15:46Z</DateUtc></FrequencyChange></FrequencyChanges></Clock>\n",Wisconsin-1171-1,59.957,1.0.0.531,1,1509108522,2.0.10.356,2.0.10.356,11-12-2022,11/12/2022 7:15:46 AM,15:15:46,2.0.10.252,3,,,,2.0,1.0,2.0,BlockProc2,List3,2,,,,,,,,,,,,,,,,,,,,2.0,1.0,2.0,,,,NumberProc2,List4,,,,,,,,,1.0,Button1.png,Button2.png,Button3.png,Button4.png,Redstar1.png,,,,,,,v,0.0,,,,6.0,1.0,1.0,0.0,TrialProc,NumberList1,,,,,,,1.0,v,0.0,1.0,322211.0,0.0,v,926.0,number
Wisconsin,1171,1,"<?xml version=""1.0""?>\n<Clock xmlns:dt=""urn:schemas-microsoft-com:datatypes""><Description dt:dt=""string"">E-Prime Primary Realtime Clock</Description><StartTime><Timestamp dt:dt=""int"">0</Timestamp><DateUtc dt:dt=""string"">2022-11-12T07:15:46Z</DateUtc></StartTime><FrequencyChanges><FrequencyChange><Frequency dt:dt=""r8"">2929873</Frequency><Timestamp dt:dt=""r8"">57343128828</Timestamp><Current dt:dt=""r8"">0</Current><DateUtc dt:dt=""string"">2022-11-12T07:15:46Z</DateUtc></FrequencyChange></FrequencyChanges></Clock>\n",Wisconsin-1171-1,59.957,1.0.0.531,1,1509108522,2.0.10.356,2.0.10.356,11-12-2022,11/12/2022 7:15:46 AM,15:15:46,2.0.10.252,3,,,,2.0,1.0,2.0,BlockProc2,List3,2,,,,,,,,,,,,,,,,,,,,2.0,1.0,2.0,,,,NumberProc2,List4,,,,,,,,,2.0,Button1.png,Button2.png,Button3.png,Button4.png,Bluetriangle4.png,,,,,,,x,1.0,,,,3.0,1.0,2.0,0.0,TrialProc,NumberList1,,,,,,,0.0,x,0.0,0.0,325680.0,0.0,v,2993.0,number
Wisconsin,1171,1,"<?xml version=""1.0""?>\n<Clock xmlns:dt=""urn:schemas-microsoft-com:datatypes""><Description dt:dt=""string"">E-Prime Primary Realtime Clock</Description><StartTime><Timestamp dt:dt=""int"">0</Timestamp><DateUtc dt:dt=""string"">2022-11-12T07:15:46Z</DateUtc></StartTime><FrequencyChanges><FrequencyChange><Frequency dt:dt=""r8"">2929873</Frequency><Timestamp dt:dt=""r8"">57343128828</Timestamp><Current dt:dt=""r8"">0</Current><DateUtc dt:dt=""string"">2022-11-12T07:15:46Z</DateUtc></FrequencyChange></FrequencyChanges></Clock>\n",Wisconsin-1171-1,59.957,1.0.0.531,1,1509108522,2.0.10.356,2.0.10.356,11-12-2022,11/12/2022 7:15:46 AM,15:15:46,2.0.10.252,3,,,,2.0,1.0,2.0,BlockProc2,List3,2,,,,,,,,,,,,,,,,,,,,2.0,1.0,2.0,,,,NumberProc2,List4,,,,,,,,,3.0,Button1.png,Button2.png,Button3.png,Button4.png,Greenstar1.png,,,,,,,v,0.0,,,,5.0,1.0,3.0,0.0,TrialProc,NumberList1,,,,,,,1.0,v,0.0,1.0,331201.0,0.0,v,816.0,number
Wisconsin,1171,1,"<?xml version=""1.0""?>\n<Clock xmlns:dt=""urn:schemas-microsoft-com:datatypes""><Description dt:dt=""string"">E-Prime Primary Realtime Clock</Description><StartTime><Timestamp dt:dt=""int"">0</Timestamp><DateUtc dt:dt=""string"">2022-11-12T07:15:46Z</DateUtc></StartTime><FrequencyChanges><FrequencyChange><Frequency dt:dt=""r8"">2929873</Frequency><Timestamp dt:dt=""r8"">57343128828</Timestamp><Current dt:dt=""r8"">0</Current><DateUtc dt:dt=""string"">2022-11-12T07:15:46Z</DateUtc></FrequencyChange></FrequencyChanges></Clock>\n",Wisconsin-1171-1,59.957,1.0.0.531,1,1509108522,2.0.10.356,2.0.10.356,11-12-2022,11/12/2022 7:15:46 AM,15:15:46,2.0.10.252,3,,,,2.0,1.0,2.0,BlockProc2,List3,2,,,,,,,,,,,,,,,,,,,,2.0,1.0,2.0,,,,NumberProc2,List4,,,,,,,,,4.0,Button1.png,Button2.png,Button3.png,Button4.png,yellowcircle4.png,,,,,,,x,1.0,,,,8.0,1.0,4.0,0.0,TrialProc,NumberList1,,,,,,,0.0,x,1.0,0.0,334553.0,0.0,z,3751.0,number
Wisconsin,1171,1,"<?xml version=""1.0""?>\n<Clock xmlns:dt=""urn:schemas-microsoft-com:datatypes""><Description dt:dt=""string"">E-Prime Primary Realtime Clock</Description><StartTime><Timestamp dt:dt=""int"">0</Timestamp><DateUtc dt:dt=""string"">2022-11-12T07:15:46Z</DateUtc></StartTime><FrequencyChanges><FrequencyChange><Frequency dt:dt=""r8"">2929873</Frequency><Timestamp dt:dt=""r8"">57343128828</Timestamp><Current dt:dt=""r8"">0</Current><DateUtc dt:dt=""string"">2022-11-12T07:15:46Z</DateUtc></FrequencyChange></FrequencyChanges></Clock>\n",Wisconsin-1171-1,59.957,1.0.0.531,1,1509108522,2.0.10.356,2.0.10.356,11-12-2022,11/12/2022 7:15:46 AM,15:15:46,2.0.10.252,3,,,,2.0,1.0,2.0,BlockProc2,List3,2,,,,,,,,,,,,,,,,,,,,2.0,1.0,2.0,,,,NumberProc2,List4,,,,,,,,,5.0,Button1.png,Button2.png,Button3.png,Button4.png,Yellowcross2.png,,,,,,,z,1.0,,,,9.0,1.0,5.0,0.0,TrialProc,NumberList1,,,,,,,0.0,z,0.0,1.0,340841.0,0.0,c,1095.0,number
Wisconsin,1171,1,"<?xml version=""1.0""?>\n<Clock xmlns:dt=""urn:schemas-microsoft-com:datatypes""><Description dt:dt=""string"">E-Prime Primary Realtime Clock</Description><StartTime><Timestamp dt:dt=""int"">0</Timestamp><DateUtc dt:dt=""string"">2022-11-12T07:15:46Z</DateUtc></StartTime><FrequencyChanges><FrequencyChange><Frequency dt:dt=""r8"">2929873</Frequency><Timestamp dt:dt=""r8"">57343128828</Timestamp><Current dt:dt=""r8"">0</Current><DateUtc dt:dt=""string"">2022-11-12T07:15:46Z</DateUtc></FrequencyChange></FrequencyChanges></Clock>\n",Wisconsin-1171-1,59.957,1.0.0.531,1,1509108522,2.0.10.356,2.0.10.356,11-12-2022,11/12/2022 7:15:46 AM,15:15:46,2.0.10.252,3,,,,2.0,1.0,2.0,BlockProc2,List3,2,,,,,,,,,,,,,,,,,,,,2.0,1.0,2.0,,,,NumberProc2,List4,,,,,,,,,6.0,Button1.png,Button2.png,Button3.png,Button4.png,Bluecross3.png,,,,,,,c,1.0,,,,1.0,1.0,6.0,0.0,TrialProc,NumberList1,,,,,,,0.0,c,0.0,1.0,344477.0,0.0,v,1171.0,number
Wisconsin,1171,1,"<?xml version=""1.0""?>\n<Clock xmlns:dt=""urn:schemas-microsoft-com:datatypes""><Description dt:dt=""string"">E-Prime Primary Realtime Clock</Description><StartTime><Timestamp dt:dt=""int"">0</Timestamp><DateUtc dt:dt=""string"">2022-11-12T07:15:46Z</DateUtc></StartTime><FrequencyChanges><FrequencyChange><Frequency dt:dt=""r8"">2929873</Frequency><Timestamp dt:dt=""r8"">57343128828</Timestamp><Current dt:dt=""r8"">0</Current><DateUtc dt:dt=""string"">2022-11-12T07:15:46Z</DateUtc></FrequencyChange></FrequencyChanges></Clock>\n",Wisconsin-1171-1,59.957,1.0.0.531,1,1509108522,2.0.10.356,2.0.10.356,11-12-2022,11/12/2022 7:15:46 AM,15:15:46,2.0.10.252,3,,,,2.0,1.0,2.0,BlockProc2,List3,2,,,,,,,,,,,,,,,,,,,,2.0,1.0,2.0,,,,NumberProc2,List4,,,,,,,,,7.0,Button1.png,Button2.png,Button3.png,Button4.png,Redtriangle2.png,,,,,,,z,1.0,,,,7.0,1.0,7.0,0.0,TrialProc,NumberList1,,,,,,,0.0,z,0.0,1.0,348180.0,0.0,c,2699.0,number
Wisconsin,1171,1,"<?xml version=""1.0""?>\n<Clock xmlns:dt=""urn:schemas-microsoft-com:datatypes""><Description dt:dt=""string"">E-Prime Primary Realtime Clock</Description><StartTime><Timestamp dt:dt=""int"">0</Timestamp><DateUtc dt:dt=""string"">2022-11-12T07:15:46Z</DateUtc></StartTime><FrequencyChanges><FrequencyChange><Frequency dt:dt=""r8"">2929873</Frequency><Timestamp dt:dt=""r8"">57343128828</Timestamp><Current dt:dt=""r8"">0</Current><DateUtc dt:dt=""string"">2022-11-12T07:15:46Z</DateUtc></FrequencyChange></FrequencyChanges></Clock>\n",Wisconsin-1171-1,59.957,1.0.0.531,1,1509108522,2.0.10.356,2.0.10.356,11-12-2022,11/12/2022 7:15:46 AM,15:15:46,2.0.10.252,3,,,,2.0,1.0,2.0,BlockProc2,List3,2,,,,,,,,,,,,,,,,,,,,2.0,1.0,2.0,,,,NumberProc2,List4,,,,,,,,,8.0,Button1.png,Button2.png,Button3.png,Button4.png,Bluestar4.png,,,,,,,x,1.0,,,,2.0,1.0,8.0,0.0,TrialProc,NumberList1,,,,,,,0.0,x,0.0,1.0,353417.0,0.0,v,870.0,number
Wisconsin,1171,1,"<?xml version=""1.0""?>\n<Clock xmlns:dt=""urn:schemas-microsoft-com:datatypes""><Description dt:dt=""string"">E-Prime Primary Realtime Clock</Description><StartTime><Timestamp dt:dt=""int"">0</Timestamp><DateUtc dt:dt=""string"">2022-11-12T07:15:46Z</DateUtc></StartTime><FrequencyChanges><FrequencyChange><Frequency dt:dt=""r8"">2929873</Frequency><Timestamp dt:dt=""r8"">57343128828</Timestamp><Current dt:dt=""r8"">0</Current><DateUtc dt:dt=""string"">2022-11-12T07:15:46Z</DateUtc></FrequencyChange></FrequencyChanges></Clock>\n",Wisconsin-1171-1,59.957,1.0.0.531,1,1509108522,2.0.10.356,2.0.10.356,11-12-2022,11/12/2022 7:15:46 AM,15:15:46,2.0.10.252,3,,,,2.0,1.0,2.0,BlockProc2,List3,2,,,,,,,,,,,,,,,,,,,,2.0,1.0,2.0,,,,NumberProc2,List4,,,,,,,,,9.0,Button1.png,Button2.png,Button3.png,Button4.png,Yellowtriangle2.png,,,,,,,z,1.0,,,,10.0,1.0,9.0,0.0,TrialProc,NumberList1,,,,,,,0.0,z,0.0,0.0,356819.0,0.0,x,2524.0,number
Wisconsin,1171,1,"<?xml version=""1.0""?>\n<Clock xmlns:dt=""urn:schemas-microsoft-com:datatypes""><Description dt:dt=""string"">E-Prime Primary Realtime Clock</Description><StartTime><Timestamp dt:dt=""int"">0</Timestamp><DateUtc dt:dt=""string"">2022-11-12T07:15:46Z</DateUtc></StartTime><FrequencyChanges><FrequencyChange><Frequency dt:dt=""r8"">2929873</Frequency><Timestamp dt:dt=""r8"">57343128828</Timestamp><Current dt:dt=""r8"">0</Current><DateUtc dt:dt=""string"">2022-11-12T07:15:46Z</DateUtc></FrequencyChange></FrequencyChanges></Clock>\n",Wisconsin-1171-1,59.957,1.0.0.531,1,1509108522,2.0.10.356,2.0.10.356,11-12-2022,11/12/2022 7:15:46 AM,15:15:46,2.0.10.252,3,,,,2.0,1.0,2.0,BlockProc2,List3,2,,,,,,,,,,,,,,,,,,,,2.0,1.0,2.0,,,,NumberProc2,List4,,,,,,,,,10.0,Button1.png,Button2.png,Button3.png,Button4.png,Greencross2.png,,,,,,,z,1.0,,,,4.0,1.0,10.0,0.0,TrialProc,NumberList1,,,,,,,0.0,z,0.0,1.0,361873.0,0.0,c,1982.0,number
Wisconsin,1171,1,"<?xml version=""1.0""?>\n<Clock xmlns:dt=""urn:schemas-microsoft-com:datatypes""><Description dt:dt=""string"">E-Prime Primary Realtime Clock</Description><StartTime><Timestamp dt:dt=""int"">0</Timestamp><DateUtc dt:dt=""string"">2022-11-12T07:15:46Z</DateUtc></StartTime><FrequencyChanges><FrequencyChange><Frequency dt:dt=""r8"">2929873</Frequency><Timestamp dt:dt=""r8"">57343128828</Timestamp><Current dt:dt=""r8"">0</Current><DateUtc dt:dt=""string"">2022-11-12T07:15:46Z</DateUtc></FrequencyChange></FrequencyChanges></Clock>\n",Wisconsin-1171-1,59.957,1.0.0.531,1,1509108522,2.0.10.356,2.0.10.356,11-12-2022,11/12/2022 7:15:46 AM,15:15:46,2.0.10.252,3,,,,2.0,1.0,2.0,BlockProc2,List3,3,,,,,,,,,,,,,,,,,,,,1.0,1.0,3.0,,,,ColorProc2,List4,,,,,,,,,1.0,BUTTON1.png,BUTTON2.PNG,BUTTON3.png,BUTTON4.png,greenstar4.png,,,,5.0,1.0,1.0,z,1.0,,,,,,,0.0,TrialProc,ColorList2,,,,,,,0.0,z,0.0,1.0,366393.0,0.0,v,1253.0,color
Wisconsin,1171,1,"<?xml version=""1.0""?>\n<Clock xmlns:dt=""urn:schemas-microsoft-com:datatypes""><Description dt:dt=""string"">E-Prime Primary Realtime Clock</Description><StartTime><Timestamp dt:dt=""int"">0</Timestamp><DateUtc dt:dt=""string"">2022-11-12T07:15:46Z</DateUtc></StartTime><FrequencyChanges><FrequencyChange><Frequency dt:dt=""r8"">2929873</Frequency><Timestamp dt:dt=""r8"">57343128828</Timestamp><Current dt:dt=""r8"">0</Current><DateUtc dt:dt=""string"">2022-11-12T07:15:46Z</DateUtc></FrequencyChange></FrequencyChanges></Clock>\n",Wisconsin-1171-1,59.957,1.0.0.531,1,1509108522,2.0.10.356,2.0.10.356,11-12-2022,11/12/2022 7:15:46 AM,15:15:46,2.0.10.252,3,,,,2.0,1.0,2.0,BlockProc2,List3,3,,,,,,,,,,,,,,,,,,,,1.0,1.0,3.0,,,,ColorProc2,List4,,,,,,,,,2.0,BUTTON1.png,BUTTON2.PNG,BUTTON3.png,BUTTON4.png,greentriangle2.png,,,,6.0,1.0,2.0,z,1.0,,,,,,,0.0,TrialProc,ColorList2,,,,,,,0.0,z,0.0,1.0,370179.0,0.0,x,3371.0,color
Wisconsin,1171,1,"<?xml version=""1.0""?>\n<Clock xmlns:dt=""urn:schemas-microsoft-com:datatypes""><Description dt:dt=""string"">E-Prime Primary Realtime Clock</Description><StartTime><Timestamp dt:dt=""int"">0</Timestamp><DateUtc dt:dt=""string"">2022-11-12T07:15:46Z</DateUtc></StartTime><FrequencyChanges><FrequencyChange><Frequency dt:dt=""r8"">2929873</Frequency><Timestamp dt:dt=""r8"">57343128828</Timestamp><Current dt:dt=""r8"">0</Current><DateUtc dt:dt=""string"">2022-11-12T07:15:46Z</DateUtc></FrequencyChange></FrequencyChanges></Clock>\n",Wisconsin-1171-1,59.957,1.0.0.531,1,1509108522,2.0.10.356,2.0.10.356,11-12-2022,11/12/2022 7:15:46 AM,15:15:46,2.0.10.252,3,,,,2.0,1.0,2.0,BlockProc2,List3,3,,,,,,,,,,,,,,,,,,,,1.0,1.0,3.0,,,,ColorProc2,List4,,,,,,,,,3.0,BUTTON1.png,BUTTON2.PNG,BUTTON3.png,BUTTON4.png,yellowcircle2.png,,,,9.0,1.0,3.0,x,1.0,,,,,,,0.0,TrialProc,ColorList2,,,,,,,0.0,x,0.0,0.0,376083.0,0.0,z,1019.0,color
Wisconsin,1171,1,"<?xml version=""1.0""?>\n<Clock xmlns:dt=""urn:schemas-microsoft-com:datatypes""><Description dt:dt=""string"">E-Prime Primary Realtime Clock</Description><StartTime><Timestamp dt:dt=""int"">0</Timestamp><DateUtc dt:dt=""string"">2022-11-12T07:15:46Z</DateUtc></StartTime><FrequencyChanges><FrequencyChange><Frequency dt:dt=""r8"">2929873</Frequency><Timestamp dt:dt=""r8"">57343128828</Timestamp><Current dt:dt=""r8"">0</Current><DateUtc dt:dt=""string"">2022-11-12T07:15:46Z</DateUtc></FrequencyChange></FrequencyChanges></Clock>\n",Wisconsin-1171-1,59.957,1.0.0.531,1,1509108522,2.0.10.356,2.0.10.356,11-12-2022,11/12/2022 7:15:46 AM,15:15:46,2.0.10.252,3,,,,2.0,1.0,2.0,BlockProc2,List3,3,,,,,,,,,,,,,,,,,,,,1.0,1.0,3.0,,,,ColorProc2,List4,,,,,,,,,4.0,BUTTON1.png,BUTTON2.PNG,BUTTON3.png,BUTTON4.png,Greencircle1.png,,,,3.0,1.0,4.0,z,0.0,,,,,,,0.0,TrialProc,ColorList2,,,,,,,1.0,z,0.0,1.0,379636.0,0.0,z,746.0,color
Wisconsin,1171,1,"<?xml version=""1.0""?>\n<Clock xmlns:dt=""urn:schemas-microsoft-com:datatypes""><Description dt:dt=""string"">E-Prime Primary Realtime Clock</Description><StartTime><Timestamp dt:dt=""int"">0</Timestamp><DateUtc dt:dt=""string"">2022-11-12T07:15:46Z</DateUtc></StartTime><FrequencyChanges><FrequencyChange><Frequency dt:dt=""r8"">2929873</Frequency><Timestamp dt:dt=""r8"">57343128828</Timestamp><Current dt:dt=""r8"">0</Current><DateUtc dt:dt=""string"">2022-11-12T07:15:46Z</DateUtc></FrequencyChange></FrequencyChanges></Clock>\n",Wisconsin-1171-1,59.957,1.0.0.531,1,1509108522,2.0.10.356,2.0.10.356,11-12-2022,11/12/2022 7:15:46 AM,15:15:46,2.0.10.252,3,,,,2.0,1.0,2.0,BlockProc2,List3,3,,,,,,,,,,,,,,,,,,,,1.0,1.0,3.0,,,,ColorProc2,List4,,,,,,,,,5.0,BUTTON1.png,BUTTON2.PNG,BUTTON3.png,BUTTON4.png,redstar4.png,,,,8.0,1.0,5.0,c,1.0,,,,,,,0.0,TrialProc,ColorList2,,,,,,,0.0,c,1.0,0.0,382921.0,0.0,v,1268.0,color
Wisconsin,1171,1,"<?xml version=""1.0""?>\n<Clock xmlns:dt=""urn:schemas-microsoft-com:datatypes""><Description dt:dt=""string"">E-Prime Primary Realtime Clock</Description><StartTime><Timestamp dt:dt=""int"">0</Timestamp><DateUtc dt:dt=""string"">2022-11-12T07:15:46Z</DateUtc></StartTime><FrequencyChanges><FrequencyChange><Frequency dt:dt=""r8"">2929873</Frequency><Timestamp dt:dt=""r8"">57343128828</Timestamp><Current dt:dt=""r8"">0</Current><DateUtc dt:dt=""string"">2022-11-12T07:15:46Z</DateUtc></FrequencyChange></FrequencyChanges></Clock>\n",Wisconsin-1171-1,59.957,1.0.0.531,1,1509108522,2.0.10.356,2.0.10.356,11-12-2022,11/12/2022 7:15:46 AM,15:15:46,2.0.10.252,3,,,,2.0,1.0,2.0,BlockProc2,List3,3,,,,,,,,,,,,,,,,,,,,1.0,1.0,3.0,,,,ColorProc2,List4,,,,,,,,,6.0,BUTTON1.png,BUTTON2.PNG,BUTTON3.png,BUTTON4.png,Redcircle2.png,,,,7.0,1.0,6.0,c,0.0,,,,,,,0.0,TrialProc,ColorList2,,,,,,,1.0,c,0.0,0.0,386724.0,0.0,c,1897.0,color
Wisconsin,1171,1,"<?xml version=""1.0""?>\n<Clock xmlns:dt=""urn:schemas-microsoft-com:datatypes""><Description dt:dt=""string"">E-Prime Primary Realtime Clock</Description><StartTime><Timestamp dt:dt=""int"">0</Timestamp><DateUtc dt:dt=""string"">2022-11-12T07:15:46Z</DateUtc></StartTime><FrequencyChanges><FrequencyChange><Frequency dt:dt=""r8"">2929873</Frequency><Timestamp dt:dt=""r8"">57343128828</Timestamp><Current dt:dt=""r8"">0</Current><DateUtc dt:dt=""string"">2022-11-12T07:15:46Z</DateUtc></FrequencyChange></FrequencyChanges></Clock>\n",Wisconsin-1171-1,59.957,1.0.0.531,1,1509108522,2.0.10.356,2.0.10.356,11-12-2022,11/12/2022 7:15:46 AM,15:15:46,2.0.10.252,3,,,,2.0,1.0,2.0,BlockProc2,List3,3,,,,,,,,,,,,,,,,,,,,1.0,1.0,3.0,,,,ColorProc2,List4,,,,,,,,,7.0,BUTTON1.png,BUTTON2.PNG,BUTTON3.png,BUTTON4.png,yellowtriangle3.png,,,,10.0,1.0,7.0,x,0.0,,,,,,,0.0,TrialProc,ColorList2,,,,,,,1.0,x,0.0,1.0,391161.0,0.0,x,1460.0,color
Wisconsin,1171,1,"<?xml version=""1.0""?>\n<Clock xmlns:dt=""urn:schemas-microsoft-com:datatypes""><Description dt:dt=""string"">E-Prime Primary Realtime Clock</Description><StartTime><Timestamp dt:dt=""int"">0</Timestamp><DateUtc dt:dt=""string"">2022-11-12T07:15:46Z</DateUtc></StartTime><FrequencyChanges><FrequencyChange><Frequency dt:dt=""r8"">2929873</Frequency><Timestamp dt:dt=""r8"">57343128828</Timestamp><Current dt:dt=""r8"">0</Current><DateUtc dt:dt=""string"">2022-11-12T07:15:46Z</DateUtc></FrequencyChange></FrequencyChanges></Clock>\n",Wisconsin-1171-1,59.957,1.0.0.531,1,1509108522,2.0.10.356,2.0.10.356,11-12-2022,11/12/2022 7:15:46 AM,15:15:46,2.0.10.252,3,,,,2.0,1.0,2.0,BlockProc2,List3,3,,,,,,,,,,,,,,,,,,,,1.0,1.0,3.0,,,,ColorProc2,List4,,,,,,,,,8.0,BUTTON1.png,BUTTON2.PNG,BUTTON3.png,BUTTON4.png,bluestar3.png,,,,2.0,1.0,8.0,v,0.0,,,,,,,0.0,TrialProc,ColorList2,,,,,,,1.0,v,0.0,1.0,395164.0,0.0,v,1264.0,color
Wisconsin,1171,1,"<?xml version=""1.0""?>\n<Clock xmlns:dt=""urn:schemas-microsoft-com:datatypes""><Description dt:dt=""string"">E-Prime Primary Realtime Clock</Description><StartTime><Timestamp dt:dt=""int"">0</Timestamp><DateUtc dt:dt=""string"">2022-11-12T07:15:46Z</DateUtc></StartTime><FrequencyChanges><FrequencyChange><Frequency dt:dt=""r8"">2929873</Frequency><Timestamp dt:dt=""r8"">57343128828</Timestamp><Current dt:dt=""r8"">0</Current><DateUtc dt:dt=""string"">2022-11-12T07:15:46Z</DateUtc></FrequencyChange></FrequencyChanges></Clock>\n",Wisconsin-1171-1,59.957,1.0.0.531,1,1509108522,2.0.10.356,2.0.10.356,11-12-2022,11/12/2022 7:15:46 AM,15:15:46,2.0.10.252,3,,,,2.0,1.0,2.0,BlockProc2,List3,3,,,,,,,,,,,,,,,,,,,,1.0,1.0,3.0,,,,ColorProc2,List4,,,,,,,,,9.0,BUTTON1.png,BUTTON2.PNG,BUTTON3.png,BUTTON4.png,bluecross1.png,,,,1.0,1.0,9.0,v,1.0,,,,,,,0.0,TrialProc,ColorList2,,,,,,,0.0,v,0.0,0.0,398966.0,0.0,c,2678.0,color
Wisconsin,1171,1,"<?xml version=""1.0""?>\n<Clock xmlns:dt=""urn:schemas-microsoft-com:datatypes""><Description dt:dt=""string"">E-Prime Primary Realtime Clock</Description><StartTime><Timestamp dt:dt=""int"">0</Timestamp><DateUtc dt:dt=""string"">2022-11-12T07:15:46Z</DateUtc></StartTime><FrequencyChanges><FrequencyChange><Frequency dt:dt=""r8"">2929873</Frequency><Timestamp dt:dt=""r8"">57343128828</Timestamp><Current dt:dt=""r8"">0</Current><DateUtc dt:dt=""string"">2022-11-12T07:15:46Z</DateUtc></FrequencyChange></FrequencyChanges></Clock>\n",Wisconsin-1171-1,59.957,1.0.0.531,1,1509108522,2.0.10.356,2.0.10.356,11-12-2022,11/12/2022 7:15:46 AM,15:15:46,2.0.10.252,3,,,,2.0,1.0,2.0,BlockProc2,List3,3,,,,,,,,,,,,,,,,,,,,1.0,1.0,3.0,,,,ColorProc2,List4,,,,,,,,,10.0,BUTTON1.png,BUTTON2.PNG,BUTTON3.png,BUTTON4.png,greencross4.png,,,,4.0,1.0,10.0,z,1.0,,,,,,,0.0,TrialProc,ColorList2,,,,,,,0.0,z,0.0,1.0,404187.0,0.0,c,1121.0,color
