ExperimentName,Subject,Session,Clock.Information,DataFile.Basename,Display.RefreshRate,ExperimentVersion,Group,RandomSeed,RuntimeVersion,RuntimeVersionExpected,SessionDate,SessionStartDateTimeUtc,SessionTime,StudioVersion,Block,List1,List1.Cycle,List1.Sample,List3,List3.Cycle,List3.Sample,Procedure[Block],Running[Block],Trial,CardIMG1[Trial],CardIMG2[Trial],CardIMG3[Trial],CardIMG4[Trial],CardStim[Trial],Category,CorrectAnswer[Trial],FeedbackDisplay2.ACC,FeedbackDisplay2.CRESP,FeedbackDisplay2.DurationError,FeedbackDisplay2.OnsetDelay,FeedbackDisplay2.OnsetTime,FeedbackDisplay2.OnsetToOnsetTime,FeedbackDisplay2.RESP,FeedbackDisplay2.RT,FeedbackDisplay2.RTTime,List2,List2.Cycle,List2.Sample,List4,List4.Cycle,List4.Sample,PracticeList,PracticeList.Cycle,PracticeList.Sample,Procedure[Trial],Running[Trial],Slide5.ACC,Slide5.CRESP,Slide5.DurationError,Slide5.OnsetDelay,Slide5.OnsetTime,Slide5.OnsetToOnsetTime,Slide5.RESP,Slide5.RT,SubTrial,CardIMG1[SubTrial],CardIMG2[SubTrial],CardIMG3[SubTrial],CardIMG4[SubTrial],CardStim[SubTrial],ColorList,ColorList.Cycle,ColorList.Sample,ColorList2,ColorList2.Cycle,ColorList2.Sample,CorrectAnswer[SubTrial],NonPerseverativeError,NumberList,NumberList.Cycle,NumberList.Sample,NumberList1,NumberList1.Cycle,NumberList1.Sample,PerseverativeError,Procedure[SubTrial],Running[SubTrial],ShapeList,ShapeList.Cycle,ShapeList.Sample,ShapeList1,ShapeList1.Cycle,ShapeList1.Sample,Stimulus.ACC,Stimulus.CRESP,Stimulus.DurationError,Stimulus.OnsetDelay,Stimulus.OnsetTime,Stimulus.OnsetToOnsetTime,Stimulus.RESP,Stimulus.RT,TrialType
Wisconsin,1160,4,"<?xml version=""1.0""?>\n<Clock xmlns:dt=""urn:schemas-microsoft-com:datatypes""><Description dt:dt=""string"">E-Prime Primary Realtime Clock</Description><StartTime><Timestamp dt:dt=""int"">0</Timestamp><DateUtc dt:dt=""string"">2023-02-11T03:11:32Z</DateUtc></StartTime><FrequencyChanges><FrequencyChange><Frequency dt:dt=""r8"">2929843</Frequency><Timestamp dt:dt=""r8"">18156006879</Timestamp><Current dt:dt=""r8"">0</Current><DateUtc dt:dt=""string"">2023-02-11T03:11:32Z</DateUtc></FrequencyChange></FrequencyChanges></Clock>\n",Wisconsin-1160-4,59.956,1.0.0.562,1,976696428,2.0.10.356,2.0.10.356,02-11-2023,2/11/2023 3:11:33 AM,11:11:33,2.0.10.252,1,1.0,1.0,1.0,,,,Practicebloc,List1,1,Button1.png,Button2.png,Button3.png,Button4.png,Greencircle3.png,顏色,z,0.0,,0.0,20.0,27490.0,0.0,,0.0,0.0,,,,,,,1.0,1.0,1.0,PracticeTrialProc,PracticeList,1.0,z,0.0,1.0,24838.0,0.0,z,2632.0,,,,,,,,,,,,,,,,,,,,,,,,,,,,,,,,,,,,,,
Wisconsin,1160,4,"<?xml version=""1.0""?>\n<Clock xmlns:dt=""urn:schemas-microsoft-com:datatypes""><Description dt:dt=""string"">E-Prime Primary Realtime Clock</Description><StartTime><Timestamp dt:dt=""int"">0</Timestamp><DateUtc dt:dt=""string"">2023-02-11T03:11:32Z</DateUtc></StartTime><FrequencyChanges><FrequencyChange><Frequency dt:dt=""r8"">2929843</Frequency><Timestamp dt:dt=""r8"">18156006879</Timestamp><Current dt:dt=""r8"">0</Current><DateUtc dt:dt=""string"">2023-02-11T03:11:32Z</DateUtc></FrequencyChange></FrequencyChanges></Clock>\n",Wisconsin-1160-4,59.956,1.0.0.562,1,976696428,2.0.10.356,2.0.10.356,02-11-2023,2/11/2023 3:11:33 AM,11:11:33,2.0.10.252,1,1.0,1.0,1.0,,,,Practicebloc,List1,2,Button1.png,Button2.png,Button3.png,Button4.png,Redstar2.png,顏色,c,0.0,,0.0,25.0,33144.0,0.0,,0.0,0.0,,,,,,,2.0,1.0,2.0,PracticeTrialProc,PracticeList,0.0,c,0.0,1.0,30042.0,0.0,z,3075.0,,,,,,,,,,,,,,,,,,,,,,,,,,,,,,,,,,,,,,
Wisconsin,1160,4,"<?xml version=""1.0""?>\n<Clock xmlns:dt=""urn:schemas-microsoft-com:datatypes""><Description dt:dt=""string"">E-Prime Primary Realtime Clock</Description><StartTime><Timestamp dt:dt=""int"">0</Timestamp><DateUtc dt:dt=""string"">2023-02-11T03:11:32Z</DateUtc></StartTime><FrequencyChanges><FrequencyChange><Frequency dt:dt=""r8"">2929843</Frequency><Timestamp dt:dt=""r8"">18156006879</Timestamp><Current dt:dt=""r8"">0</Current><DateUtc dt:dt=""string"">2023-02-11T03:11:32Z</DateUtc></FrequencyChange></FrequencyChanges></Clock>\n",Wisconsin-1160-4,59.956,1.0.0.562,1,976696428,2.0.10.356,2.0.10.356,02-11-2023,2/11/2023 3:11:33 AM,11:11:33,2.0.10.252,1,1.0,1.0,1.0,,,,Practicebloc,List1,3,Button1.png,Button2.png,Button3.png,Button4.png,Bluetriangle1.png,形狀,x,0.0,,0.0,11.0,37914.0,0.0,,0.0,0.0,,,,,,,3.0,1.0,3.0,PracticeTrialProc,PracticeList,1.0,x,0.0,1.0,35696.0,0.0,x,2205.0,,,,,,,,,,,,,,,,,,,,,,,,,,,,,,,,,,,,,,
Wisconsin,1160,4,"<?xml version=""1.0""?>\n<Clock xmlns:dt=""urn:schemas-microsoft-com:datatypes""><Description dt:dt=""string"">E-Prime Primary Realtime Clock</Description><StartTime><Timestamp dt:dt=""int"">0</Timestamp><DateUtc dt:dt=""string"">2023-02-11T03:11:32Z</DateUtc></StartTime><FrequencyChanges><FrequencyChange><Frequency dt:dt=""r8"">2929843</Frequency><Timestamp dt:dt=""r8"">18156006879</Timestamp><Current dt:dt=""r8"">0</Current><DateUtc dt:dt=""string"">2023-02-11T03:11:32Z</DateUtc></FrequencyChange></FrequencyChanges></Clock>\n",Wisconsin-1160-4,59.956,1.0.0.562,1,976696428,2.0.10.356,2.0.10.356,02-11-2023,2/11/2023 3:11:33 AM,11:11:33,2.0.10.252,1,1.0,1.0,1.0,,,,Practicebloc,List1,4,Button1.png,Button2.png,Button3.png,Button4.png,greenstar2.png,形狀,v,0.0,,0.0,24.0,41417.0,0.0,,0.0,0.0,,,,,,,4.0,1.0,4.0,PracticeTrialProc,PracticeList,1.0,v,0.0,1.0,40466.0,0.0,v,923.0,,,,,,,,,,,,,,,,,,,,,,,,,,,,,,,,,,,,,,
Wisconsin,1160,4,"<?xml version=""1.0""?>\n<Clock xmlns:dt=""urn:schemas-microsoft-com:datatypes""><Description dt:dt=""string"">E-Prime Primary Realtime Clock</Description><StartTime><Timestamp dt:dt=""int"">0</Timestamp><DateUtc dt:dt=""string"">2023-02-11T03:11:32Z</DateUtc></StartTime><FrequencyChanges><FrequencyChange><Frequency dt:dt=""r8"">2929843</Frequency><Timestamp dt:dt=""r8"">18156006879</Timestamp><Current dt:dt=""r8"">0</Current><DateUtc dt:dt=""string"">2023-02-11T03:11:32Z</DateUtc></FrequencyChange></FrequencyChanges></Clock>\n",Wisconsin-1160-4,59.956,1.0.0.562,1,976696428,2.0.10.356,2.0.10.356,02-11-2023,2/11/2023 3:11:33 AM,11:11:33,2.0.10.252,1,1.0,1.0,1.0,,,,Practicebloc,List1,5,Button1.png,Button2.png,Button3.png,Button4.png,BlueCross4.png,數目,x,0.0,,0.0,21.0,45603.0,0.0,,0.0,0.0,,,,,,,5.0,1.0,5.0,PracticeTrialProc,PracticeList,1.0,x,0.0,1.0,43969.0,0.0,x,1612.0,,,,,,,,,,,,,,,,,,,,,,,,,,,,,,,,,,,,,,
Wisconsin,1160,4,"<?xml version=""1.0""?>\n<Clock xmlns:dt=""urn:schemas-microsoft-com:datatypes""><Description dt:dt=""string"">E-Prime Primary Realtime Clock</Description><StartTime><Timestamp dt:dt=""int"">0</Timestamp><DateUtc dt:dt=""string"">2023-02-11T03:11:32Z</DateUtc></StartTime><FrequencyChanges><FrequencyChange><Frequency dt:dt=""r8"">2929843</Frequency><Timestamp dt:dt=""r8"">18156006879</Timestamp><Current dt:dt=""r8"">0</Current><DateUtc dt:dt=""string"">2023-02-11T03:11:32Z</DateUtc></FrequencyChange></FrequencyChanges></Clock>\n",Wisconsin-1160-4,59.956,1.0.0.562,1,976696428,2.0.10.356,2.0.10.356,02-11-2023,2/11/2023 3:11:33 AM,11:11:33,2.0.10.252,1,1.0,1.0,1.0,,,,Practicebloc,List1,6,Button1.png,Button2.png,Button3.png,Button4.png,yellowcircle2.png,數目,z,0.0,,0.0,24.0,48822.0,0.0,,0.0,0.0,,,,,,,6.0,1.0,6.0,PracticeTrialProc,PracticeList,1.0,z,0.0,1.0,48155.0,0.0,z,642.0,,,,,,,,,,,,,,,,,,,,,,,,,,,,,,,,,,,,,,
Wisconsin,1160,4,"<?xml version=""1.0""?>\n<Clock xmlns:dt=""urn:schemas-microsoft-com:datatypes""><Description dt:dt=""string"">E-Prime Primary Realtime Clock</Description><StartTime><Timestamp dt:dt=""int"">0</Timestamp><DateUtc dt:dt=""string"">2023-02-11T03:11:32Z</DateUtc></StartTime><FrequencyChanges><FrequencyChange><Frequency dt:dt=""r8"">2929843</Frequency><Timestamp dt:dt=""r8"">18156006879</Timestamp><Current dt:dt=""r8"">0</Current><DateUtc dt:dt=""string"">2023-02-11T03:11:32Z</DateUtc></FrequencyChange></FrequencyChanges></Clock>\n",Wisconsin-1160-4,59.956,1.0.0.562,1,976696428,2.0.10.356,2.0.10.356,02-11-2023,2/11/2023 3:11:33 AM,11:11:33,2.0.10.252,2,,,,2.0,1.0,1.0,BlockProc2,List3,1,,,,,,,,,,,,,,,,,,,,2.0,1.0,1.0,,,,NumberProc2,List4,,,,,,,,,1.0,Button1.png,Button2.png,Button3.png,Button4.png,Bluetriangle4.png,,,,,,,x,0.0,,,,3.0,1.0,1.0,0.0,TrialProc,NumberList1,,,,,,,1.0,x,0.0,1.0,206871.0,0.0,x,941.0,number
Wisconsin,1160,4,"<?xml version=""1.0""?>\n<Clock xmlns:dt=""urn:schemas-microsoft-com:datatypes""><Description dt:dt=""string"">E-Prime Primary Realtime Clock</Description><StartTime><Timestamp dt:dt=""int"">0</Timestamp><DateUtc dt:dt=""string"">2023-02-11T03:11:32Z</DateUtc></StartTime><FrequencyChanges><FrequencyChange><Frequency dt:dt=""r8"">2929843</Frequency><Timestamp dt:dt=""r8"">18156006879</Timestamp><Current dt:dt=""r8"">0</Current><DateUtc dt:dt=""string"">2023-02-11T03:11:32Z</DateUtc></FrequencyChange></FrequencyChanges></Clock>\n",Wisconsin-1160-4,59.956,1.0.0.562,1,976696428,2.0.10.356,2.0.10.356,02-11-2023,2/11/2023 3:11:33 AM,11:11:33,2.0.10.252,2,,,,2.0,1.0,1.0,BlockProc2,List3,1,,,,,,,,,,,,,,,,,,,,2.0,1.0,1.0,,,,NumberProc2,List4,,,,,,,,,2.0,Button1.png,Button2.png,Button3.png,Button4.png,Greencross2.png,,,,,,,z,0.0,,,,4.0,1.0,2.0,0.0,TrialProc,NumberList1,,,,,,,1.0,z,0.0,1.0,210357.0,0.0,z,1279.0,number
Wisconsin,1160,4,"<?xml version=""1.0""?>\n<Clock xmlns:dt=""urn:schemas-microsoft-com:datatypes""><Description dt:dt=""string"">E-Prime Primary Realtime Clock</Description><StartTime><Timestamp dt:dt=""int"">0</Timestamp><DateUtc dt:dt=""string"">2023-02-11T03:11:32Z</DateUtc></StartTime><FrequencyChanges><FrequencyChange><Frequency dt:dt=""r8"">2929843</Frequency><Timestamp dt:dt=""r8"">18156006879</Timestamp><Current dt:dt=""r8"">0</Current><DateUtc dt:dt=""string"">2023-02-11T03:11:32Z</DateUtc></FrequencyChange></FrequencyChanges></Clock>\n",Wisconsin-1160-4,59.956,1.0.0.562,1,976696428,2.0.10.356,2.0.10.356,02-11-2023,2/11/2023 3:11:33 AM,11:11:33,2.0.10.252,2,,,,2.0,1.0,1.0,BlockProc2,List3,1,,,,,,,,,,,,,,,,,,,,2.0,1.0,1.0,,,,NumberProc2,List4,,,,,,,,,3.0,Button1.png,Button2.png,Button3.png,Button4.png,Yellowtriangle2.png,,,,,,,z,0.0,,,,10.0,1.0,3.0,0.0,TrialProc,NumberList1,,,,,,,1.0,z,0.0,1.0,214176.0,0.0,z,996.0,number
Wisconsin,1160,4,"<?xml version=""1.0""?>\n<Clock xmlns:dt=""urn:schemas-microsoft-com:datatypes""><Description dt:dt=""string"">E-Prime Primary Realtime Clock</Description><StartTime><Timestamp dt:dt=""int"">0</Timestamp><DateUtc dt:dt=""string"">2023-02-11T03:11:32Z</DateUtc></StartTime><FrequencyChanges><FrequencyChange><Frequency dt:dt=""r8"">2929843</Frequency><Timestamp dt:dt=""r8"">18156006879</Timestamp><Current dt:dt=""r8"">0</Current><DateUtc dt:dt=""string"">2023-02-11T03:11:32Z</DateUtc></FrequencyChange></FrequencyChanges></Clock>\n",Wisconsin-1160-4,59.956,1.0.0.562,1,976696428,2.0.10.356,2.0.10.356,02-11-2023,2/11/2023 3:11:33 AM,11:11:33,2.0.10.252,2,,,,2.0,1.0,1.0,BlockProc2,List3,1,,,,,,,,,,,,,,,,,,,,2.0,1.0,1.0,,,,NumberProc2,List4,,,,,,,,,4.0,Button1.png,Button2.png,Button3.png,Button4.png,Yellowcross2.png,,,,,,,z,0.0,,,,9.0,1.0,4.0,0.0,TrialProc,NumberList1,,,,,,,1.0,z,0.0,1.0,217712.0,0.0,z,1476.0,number
Wisconsin,1160,4,"<?xml version=""1.0""?>\n<Clock xmlns:dt=""urn:schemas-microsoft-com:datatypes""><Description dt:dt=""string"">E-Prime Primary Realtime Clock</Description><StartTime><Timestamp dt:dt=""int"">0</Timestamp><DateUtc dt:dt=""string"">2023-02-11T03:11:32Z</DateUtc></StartTime><FrequencyChanges><FrequencyChange><Frequency dt:dt=""r8"">2929843</Frequency><Timestamp dt:dt=""r8"">18156006879</Timestamp><Current dt:dt=""r8"">0</Current><DateUtc dt:dt=""string"">2023-02-11T03:11:32Z</DateUtc></FrequencyChange></FrequencyChanges></Clock>\n",Wisconsin-1160-4,59.956,1.0.0.562,1,976696428,2.0.10.356,2.0.10.356,02-11-2023,2/11/2023 3:11:33 AM,11:11:33,2.0.10.252,2,,,,2.0,1.0,1.0,BlockProc2,List3,1,,,,,,,,,,,,,,,,,,,,2.0,1.0,1.0,,,,NumberProc2,List4,,,,,,,,,5.0,Button1.png,Button2.png,Button3.png,Button4.png,Redtriangle2.png,,,,,,,z,0.0,,,,7.0,1.0,5.0,0.0,TrialProc,NumberList1,,,,,,,1.0,z,0.0,1.0,221732.0,0.0,z,799.0,number
Wisconsin,1160,4,"<?xml version=""1.0""?>\n<Clock xmlns:dt=""urn:schemas-microsoft-com:datatypes""><Description dt:dt=""string"">E-Prime Primary Realtime Clock</Description><StartTime><Timestamp dt:dt=""int"">0</Timestamp><DateUtc dt:dt=""string"">2023-02-11T03:11:32Z</DateUtc></StartTime><FrequencyChanges><FrequencyChange><Frequency dt:dt=""r8"">2929843</Frequency><Timestamp dt:dt=""r8"">18156006879</Timestamp><Current dt:dt=""r8"">0</Current><DateUtc dt:dt=""string"">2023-02-11T03:11:32Z</DateUtc></FrequencyChange></FrequencyChanges></Clock>\n",Wisconsin-1160-4,59.956,1.0.0.562,1,976696428,2.0.10.356,2.0.10.356,02-11-2023,2/11/2023 3:11:33 AM,11:11:33,2.0.10.252,2,,,,2.0,1.0,1.0,BlockProc2,List3,1,,,,,,,,,,,,,,,,,,,,2.0,1.0,1.0,,,,NumberProc2,List4,,,,,,,,,6.0,Button1.png,Button2.png,Button3.png,Button4.png,Bluestar4.png,,,,,,,x,0.0,,,,2.0,1.0,6.0,0.0,TrialProc,NumberList1,,,,,,,1.0,x,1.0,0.0,225067.0,0.0,x,888.0,number
Wisconsin,1160,4,"<?xml version=""1.0""?>\n<Clock xmlns:dt=""urn:schemas-microsoft-com:datatypes""><Description dt:dt=""string"">E-Prime Primary Realtime Clock</Description><StartTime><Timestamp dt:dt=""int"">0</Timestamp><DateUtc dt:dt=""string"">2023-02-11T03:11:32Z</DateUtc></StartTime><FrequencyChanges><FrequencyChange><Frequency dt:dt=""r8"">2929843</Frequency><Timestamp dt:dt=""r8"">18156006879</Timestamp><Current dt:dt=""r8"">0</Current><DateUtc dt:dt=""string"">2023-02-11T03:11:32Z</DateUtc></FrequencyChange></FrequencyChanges></Clock>\n",Wisconsin-1160-4,59.956,1.0.0.562,1,976696428,2.0.10.356,2.0.10.356,02-11-2023,2/11/2023 3:11:33 AM,11:11:33,2.0.10.252,2,,,,2.0,1.0,1.0,BlockProc2,List3,1,,,,,,,,,,,,,,,,,,,,2.0,1.0,1.0,,,,NumberProc2,List4,,,,,,,,,7.0,Button1.png,Button2.png,Button3.png,Button4.png,Bluecross3.png,,,,,,,c,0.0,,,,1.0,1.0,7.0,0.0,TrialProc,NumberList1,,,,,,,1.0,c,0.0,1.0,228487.0,0.0,c,812.0,number
Wisconsin,1160,4,"<?xml version=""1.0""?>\n<Clock xmlns:dt=""urn:schemas-microsoft-com:datatypes""><Description dt:dt=""string"">E-Prime Primary Realtime Clock</Description><StartTime><Timestamp dt:dt=""int"">0</Timestamp><DateUtc dt:dt=""string"">2023-02-11T03:11:32Z</DateUtc></StartTime><FrequencyChanges><FrequencyChange><Frequency dt:dt=""r8"">2929843</Frequency><Timestamp dt:dt=""r8"">18156006879</Timestamp><Current dt:dt=""r8"">0</Current><DateUtc dt:dt=""string"">2023-02-11T03:11:32Z</DateUtc></FrequencyChange></FrequencyChanges></Clock>\n",Wisconsin-1160-4,59.956,1.0.0.562,1,976696428,2.0.10.356,2.0.10.356,02-11-2023,2/11/2023 3:11:33 AM,11:11:33,2.0.10.252,2,,,,2.0,1.0,1.0,BlockProc2,List3,1,,,,,,,,,,,,,,,,,,,,2.0,1.0,1.0,,,,NumberProc2,List4,,,,,,,,,8.0,Button1.png,Button2.png,Button3.png,Button4.png,Greenstar1.png,,,,,,,v,0.0,,,,5.0,1.0,8.0,0.0,TrialProc,NumberList1,,,,,,,1.0,v,0.0,1.0,231839.0,0.0,v,676.0,number
Wisconsin,1160,4,"<?xml version=""1.0""?>\n<Clock xmlns:dt=""urn:schemas-microsoft-com:datatypes""><Description dt:dt=""string"">E-Prime Primary Realtime Clock</Description><StartTime><Timestamp dt:dt=""int"">0</Timestamp><DateUtc dt:dt=""string"">2023-02-11T03:11:32Z</DateUtc></StartTime><FrequencyChanges><FrequencyChange><Frequency dt:dt=""r8"">2929843</Frequency><Timestamp dt:dt=""r8"">18156006879</Timestamp><Current dt:dt=""r8"">0</Current><DateUtc dt:dt=""string"">2023-02-11T03:11:32Z</DateUtc></FrequencyChange></FrequencyChanges></Clock>\n",Wisconsin-1160-4,59.956,1.0.0.562,1,976696428,2.0.10.356,2.0.10.356,02-11-2023,2/11/2023 3:11:33 AM,11:11:33,2.0.10.252,2,,,,2.0,1.0,1.0,BlockProc2,List3,1,,,,,,,,,,,,,,,,,,,,2.0,1.0,1.0,,,,NumberProc2,List4,,,,,,,,,9.0,Button1.png,Button2.png,Button3.png,Button4.png,yellowcircle4.png,,,,,,,x,0.0,,,,8.0,1.0,9.0,0.0,TrialProc,NumberList1,,,,,,,1.0,x,0.0,1.0,235058.0,0.0,x,577.0,number
Wisconsin,1160,4,"<?xml version=""1.0""?>\n<Clock xmlns:dt=""urn:schemas-microsoft-com:datatypes""><Description dt:dt=""string"">E-Prime Primary Realtime Clock</Description><StartTime><Timestamp dt:dt=""int"">0</Timestamp><DateUtc dt:dt=""string"">2023-02-11T03:11:32Z</DateUtc></StartTime><FrequencyChanges><FrequencyChange><Frequency dt:dt=""r8"">2929843</Frequency><Timestamp dt:dt=""r8"">18156006879</Timestamp><Current dt:dt=""r8"">0</Current><DateUtc dt:dt=""string"">2023-02-11T03:11:32Z</DateUtc></FrequencyChange></FrequencyChanges></Clock>\n",Wisconsin-1160-4,59.956,1.0.0.562,1,976696428,2.0.10.356,2.0.10.356,02-11-2023,2/11/2023 3:11:33 AM,11:11:33,2.0.10.252,2,,,,2.0,1.0,1.0,BlockProc2,List3,1,,,,,,,,,,,,,,,,,,,,2.0,1.0,1.0,,,,NumberProc2,List4,,,,,,,,,10.0,Button1.png,Button2.png,Button3.png,Button4.png,Redstar1.png,,,,,,,v,0.0,,,,6.0,1.0,10.0,0.0,TrialProc,NumberList1,,,,,,,1.0,v,0.0,1.0,238177.0,0.0,v,1169.0,number
Wisconsin,1160,4,"<?xml version=""1.0""?>\n<Clock xmlns:dt=""urn:schemas-microsoft-com:datatypes""><Description dt:dt=""string"">E-Prime Primary Realtime Clock</Description><StartTime><Timestamp dt:dt=""int"">0</Timestamp><DateUtc dt:dt=""string"">2023-02-11T03:11:32Z</DateUtc></StartTime><FrequencyChanges><FrequencyChange><Frequency dt:dt=""r8"">2929843</Frequency><Timestamp dt:dt=""r8"">18156006879</Timestamp><Current dt:dt=""r8"">0</Current><DateUtc dt:dt=""string"">2023-02-11T03:11:32Z</DateUtc></FrequencyChange></FrequencyChanges></Clock>\n",Wisconsin-1160-4,59.956,1.0.0.562,1,976696428,2.0.10.356,2.0.10.356,02-11-2023,2/11/2023 3:11:33 AM,11:11:33,2.0.10.252,2,,,,2.0,1.0,1.0,BlockProc2,List3,2,,,,,,,,,,,,,,,,,,,,1.0,1.0,2.0,,,,ColorProc2,List4,,,,,,,,,1.0,BUTTON1.png,BUTTON2.PNG,BUTTON3.png,BUTTON4.png,greencross4.png,,,,4.0,1.0,1.0,z,0.0,,,,,,,0.0,TrialProc,ColorList2,,,,,,,1.0,z,0.0,1.0,241880.0,0.0,z,2826.0,color
Wisconsin,1160,4,"<?xml version=""1.0""?>\n<Clock xmlns:dt=""urn:schemas-microsoft-com:datatypes""><Description dt:dt=""string"">E-Prime Primary Realtime Clock</Description><StartTime><Timestamp dt:dt=""int"">0</Timestamp><DateUtc dt:dt=""string"">2023-02-11T03:11:32Z</DateUtc></StartTime><FrequencyChanges><FrequencyChange><Frequency dt:dt=""r8"">2929843</Frequency><Timestamp dt:dt=""r8"">18156006879</Timestamp><Current dt:dt=""r8"">0</Current><DateUtc dt:dt=""string"">2023-02-11T03:11:32Z</DateUtc></FrequencyChange></FrequencyChanges></Clock>\n",Wisconsin-1160-4,59.956,1.0.0.562,1,976696428,2.0.10.356,2.0.10.356,02-11-2023,2/11/2023 3:11:33 AM,11:11:33,2.0.10.252,2,,,,2.0,1.0,1.0,BlockProc2,List3,2,,,,,,,,,,,,,,,,,,,,1.0,1.0,2.0,,,,ColorProc2,List4,,,,,,,,,2.0,BUTTON1.png,BUTTON2.PNG,BUTTON3.png,BUTTON4.png,Greencircle1.png,,,,3.0,1.0,2.0,z,0.0,,,,,,,0.0,TrialProc,ColorList2,,,,,,,1.0,z,0.0,1.0,247234.0,0.0,z,624.0,color
Wisconsin,1160,4,"<?xml version=""1.0""?>\n<Clock xmlns:dt=""urn:schemas-microsoft-com:datatypes""><Description dt:dt=""string"">E-Prime Primary Realtime Clock</Description><StartTime><Timestamp dt:dt=""int"">0</Timestamp><DateUtc dt:dt=""string"">2023-02-11T03:11:32Z</DateUtc></StartTime><FrequencyChanges><FrequencyChange><Frequency dt:dt=""r8"">2929843</Frequency><Timestamp dt:dt=""r8"">18156006879</Timestamp><Current dt:dt=""r8"">0</Current><DateUtc dt:dt=""string"">2023-02-11T03:11:32Z</DateUtc></FrequencyChange></FrequencyChanges></Clock>\n",Wisconsin-1160-4,59.956,1.0.0.562,1,976696428,2.0.10.356,2.0.10.356,02-11-2023,2/11/2023 3:11:33 AM,11:11:33,2.0.10.252,2,,,,2.0,1.0,1.0,BlockProc2,List3,2,,,,,,,,,,,,,,,,,,,,1.0,1.0,2.0,,,,ColorProc2,List4,,,,,,,,,3.0,BUTTON1.png,BUTTON2.PNG,BUTTON3.png,BUTTON4.png,bluestar3.png,,,,2.0,1.0,3.0,v,0.0,,,,,,,0.0,TrialProc,ColorList2,,,,,,,1.0,v,0.0,1.0,250386.0,0.0,v,816.0,color
Wisconsin,1160,4,"<?xml version=""1.0""?>\n<Clock xmlns:dt=""urn:schemas-microsoft-com:datatypes""><Description dt:dt=""string"">E-Prime Primary Realtime Clock</Description><StartTime><Timestamp dt:dt=""int"">0</Timestamp><DateUtc dt:dt=""string"">2023-02-11T03:11:32Z</DateUtc></StartTime><FrequencyChanges><FrequencyChange><Frequency dt:dt=""r8"">2929843</Frequency><Timestamp dt:dt=""r8"">18156006879</Timestamp><Current dt:dt=""r8"">0</Current><DateUtc dt:dt=""string"">2023-02-11T03:11:32Z</DateUtc></FrequencyChange></FrequencyChanges></Clock>\n",Wisconsin-1160-4,59.956,1.0.0.562,1,976696428,2.0.10.356,2.0.10.356,02-11-2023,2/11/2023 3:11:33 AM,11:11:33,2.0.10.252,2,,,,2.0,1.0,1.0,BlockProc2,List3,2,,,,,,,,,,,,,,,,,,,,1.0,1.0,2.0,,,,ColorProc2,List4,,,,,,,,,4.0,BUTTON1.png,BUTTON2.PNG,BUTTON3.png,BUTTON4.png,redstar4.png,,,,8.0,1.0,4.0,c,0.0,,,,,,,0.0,TrialProc,ColorList2,,,,,,,1.0,c,0.0,0.0,253738.0,0.0,c,936.0,color
Wisconsin,1160,4,"<?xml version=""1.0""?>\n<Clock xmlns:dt=""urn:schemas-microsoft-com:datatypes""><Description dt:dt=""string"">E-Prime Primary Realtime Clock</Description><StartTime><Timestamp dt:dt=""int"">0</Timestamp><DateUtc dt:dt=""string"">2023-02-11T03:11:32Z</DateUtc></StartTime><FrequencyChanges><FrequencyChange><Frequency dt:dt=""r8"">2929843</Frequency><Timestamp dt:dt=""r8"">18156006879</Timestamp><Current dt:dt=""r8"">0</Current><DateUtc dt:dt=""string"">2023-02-11T03:11:32Z</DateUtc></FrequencyChange></FrequencyChanges></Clock>\n",Wisconsin-1160-4,59.956,1.0.0.562,1,976696428,2.0.10.356,2.0.10.356,02-11-2023,2/11/2023 3:11:33 AM,11:11:33,2.0.10.252,2,,,,2.0,1.0,1.0,BlockProc2,List3,2,,,,,,,,,,,,,,,,,,,,1.0,1.0,2.0,,,,ColorProc2,List4,,,,,,,,,5.0,BUTTON1.png,BUTTON2.PNG,BUTTON3.png,BUTTON4.png,bluecross1.png,,,,1.0,1.0,5.0,v,0.0,,,,,,,0.0,TrialProc,ColorList2,,,,,,,1.0,v,0.0,1.0,257208.0,0.0,v,649.0,color
Wisconsin,1160,4,"<?xml version=""1.0""?>\n<Clock xmlns:dt=""urn:schemas-microsoft-com:datatypes""><Description dt:dt=""string"">E-Prime Primary Realtime Clock</Description><StartTime><Timestamp dt:dt=""int"">0</Timestamp><DateUtc dt:dt=""string"">2023-02-11T03:11:32Z</DateUtc></StartTime><FrequencyChanges><FrequencyChange><Frequency dt:dt=""r8"">2929843</Frequency><Timestamp dt:dt=""r8"">18156006879</Timestamp><Current dt:dt=""r8"">0</Current><DateUtc dt:dt=""string"">2023-02-11T03:11:32Z</DateUtc></FrequencyChange></FrequencyChanges></Clock>\n",Wisconsin-1160-4,59.956,1.0.0.562,1,976696428,2.0.10.356,2.0.10.356,02-11-2023,2/11/2023 3:11:33 AM,11:11:33,2.0.10.252,2,,,,2.0,1.0,1.0,BlockProc2,List3,2,,,,,,,,,,,,,,,,,,,,1.0,1.0,2.0,,,,ColorProc2,List4,,,,,,,,,6.0,BUTTON1.png,BUTTON2.PNG,BUTTON3.png,BUTTON4.png,Redcircle2.png,,,,7.0,1.0,6.0,c,0.0,,,,,,,0.0,TrialProc,ColorList2,,,,,,,1.0,c,0.0,0.0,260393.0,0.0,c,584.0,color
Wisconsin,1160,4,"<?xml version=""1.0""?>\n<Clock xmlns:dt=""urn:schemas-microsoft-com:datatypes""><Description dt:dt=""string"">E-Prime Primary Realtime Clock</Description><StartTime><Timestamp dt:dt=""int"">0</Timestamp><DateUtc dt:dt=""string"">2023-02-11T03:11:32Z</DateUtc></StartTime><FrequencyChanges><FrequencyChange><Frequency dt:dt=""r8"">2929843</Frequency><Timestamp dt:dt=""r8"">18156006879</Timestamp><Current dt:dt=""r8"">0</Current><DateUtc dt:dt=""string"">2023-02-11T03:11:32Z</DateUtc></FrequencyChange></FrequencyChanges></Clock>\n",Wisconsin-1160-4,59.956,1.0.0.562,1,976696428,2.0.10.356,2.0.10.356,02-11-2023,2/11/2023 3:11:33 AM,11:11:33,2.0.10.252,2,,,,2.0,1.0,1.0,BlockProc2,List3,2,,,,,,,,,,,,,,,,,,,,1.0,1.0,2.0,,,,ColorProc2,List4,,,,,,,,,7.0,BUTTON1.png,BUTTON2.PNG,BUTTON3.png,BUTTON4.png,yellowtriangle3.png,,,,10.0,1.0,7.0,x,0.0,,,,,,,0.0,TrialProc,ColorList2,,,,,,,1.0,x,0.0,1.0,263512.0,0.0,x,553.0,color
Wisconsin,1160,4,"<?xml version=""1.0""?>\n<Clock xmlns:dt=""urn:schemas-microsoft-com:datatypes""><Description dt:dt=""string"">E-Prime Primary Realtime Clock</Description><StartTime><Timestamp dt:dt=""int"">0</Timestamp><DateUtc dt:dt=""string"">2023-02-11T03:11:32Z</DateUtc></StartTime><FrequencyChanges><FrequencyChange><Frequency dt:dt=""r8"">2929843</Frequency><Timestamp dt:dt=""r8"">18156006879</Timestamp><Current dt:dt=""r8"">0</Current><DateUtc dt:dt=""string"">2023-02-11T03:11:32Z</DateUtc></FrequencyChange></FrequencyChanges></Clock>\n",Wisconsin-1160-4,59.956,1.0.0.562,1,976696428,2.0.10.356,2.0.10.356,02-11-2023,2/11/2023 3:11:33 AM,11:11:33,2.0.10.252,2,,,,2.0,1.0,1.0,BlockProc2,List3,2,,,,,,,,,,,,,,,,,,,,1.0,1.0,2.0,,,,ColorProc2,List4,,,,,,,,,8.0,BUTTON1.png,BUTTON2.PNG,BUTTON3.png,BUTTON4.png,greenstar4.png,,,,5.0,1.0,8.0,z,0.0,,,,,,,0.0,TrialProc,ColorList2,,,,,,,1.0,z,0.0,1.0,266598.0,0.0,z,539.0,color
Wisconsin,1160,4,"<?xml version=""1.0""?>\n<Clock xmlns:dt=""urn:schemas-microsoft-com:datatypes""><Description dt:dt=""string"">E-Prime Primary Realtime Clock</Description><StartTime><Timestamp dt:dt=""int"">0</Timestamp><DateUtc dt:dt=""string"">2023-02-11T03:11:32Z</DateUtc></StartTime><FrequencyChanges><FrequencyChange><Frequency dt:dt=""r8"">2929843</Frequency><Timestamp dt:dt=""r8"">18156006879</Timestamp><Current dt:dt=""r8"">0</Current><DateUtc dt:dt=""string"">2023-02-11T03:11:32Z</DateUtc></FrequencyChange></FrequencyChanges></Clock>\n",Wisconsin-1160-4,59.956,1.0.0.562,1,976696428,2.0.10.356,2.0.10.356,02-11-2023,2/11/2023 3:11:33 AM,11:11:33,2.0.10.252,2,,,,2.0,1.0,1.0,BlockProc2,List3,2,,,,,,,,,,,,,,,,,,,,1.0,1.0,2.0,,,,ColorProc2,List4,,,,,,,,,9.0,BUTTON1.png,BUTTON2.PNG,BUTTON3.png,BUTTON4.png,yellowcircle2.png,,,,9.0,1.0,9.0,x,0.0,,,,,,,0.0,TrialProc,ColorList2,,,,,,,1.0,x,0.0,1.0,269667.0,0.0,x,622.0,color
Wisconsin,1160,4,"<?xml version=""1.0""?>\n<Clock xmlns:dt=""urn:schemas-microsoft-com:datatypes""><Description dt:dt=""string"">E-Prime Primary Realtime Clock</Description><StartTime><Timestamp dt:dt=""int"">0</Timestamp><DateUtc dt:dt=""string"">2023-02-11T03:11:32Z</DateUtc></StartTime><FrequencyChanges><FrequencyChange><Frequency dt:dt=""r8"">2929843</Frequency><Timestamp dt:dt=""r8"">18156006879</Timestamp><Current dt:dt=""r8"">0</Current><DateUtc dt:dt=""string"">2023-02-11T03:11:32Z</DateUtc></FrequencyChange></FrequencyChanges></Clock>\n",Wisconsin-1160-4,59.956,1.0.0.562,1,976696428,2.0.10.356,2.0.10.356,02-11-2023,2/11/2023 3:11:33 AM,11:11:33,2.0.10.252,2,,,,2.0,1.0,1.0,BlockProc2,List3,2,,,,,,,,,,,,,,,,,,,,1.0,1.0,2.0,,,,ColorProc2,List4,,,,,,,,,10.0,BUTTON1.png,BUTTON2.PNG,BUTTON3.png,BUTTON4.png,greentriangle2.png,,,,6.0,1.0,10.0,z,0.0,,,,,,,0.0,TrialProc,ColorList2,,,,,,,1.0,z,0.0,1.0,272819.0,0.0,z,558.0,color
Wisconsin,1160,4,"<?xml version=""1.0""?>\n<Clock xmlns:dt=""urn:schemas-microsoft-com:datatypes""><Description dt:dt=""string"">E-Prime Primary Realtime Clock</Description><StartTime><Timestamp dt:dt=""int"">0</Timestamp><DateUtc dt:dt=""string"">2023-02-11T03:11:32Z</DateUtc></StartTime><FrequencyChanges><FrequencyChange><Frequency dt:dt=""r8"">2929843</Frequency><Timestamp dt:dt=""r8"">18156006879</Timestamp><Current dt:dt=""r8"">0</Current><DateUtc dt:dt=""string"">2023-02-11T03:11:32Z</DateUtc></FrequencyChange></FrequencyChanges></Clock>\n",Wisconsin-1160-4,59.956,1.0.0.562,1,976696428,2.0.10.356,2.0.10.356,02-11-2023,2/11/2023 3:11:33 AM,11:11:33,2.0.10.252,2,,,,2.0,1.0,1.0,BlockProc2,List3,3,,,,,,,,,,,,,,,,,,,,3.0,1.0,3.0,,,,ShapeProc2,List4,,,,,,,,,1.0,Button1.png,Button2.png,Button3.png,Button4.png,Bluecircle3.png,,,,,,,z,0.0,,,,,,,0.0,TrialProc,ShapeList1,,,,1.0,1.0,1.0,1.0,z,0.0,0.0,275921.0,0.0,z,2543.0,Shape
Wisconsin,1160,4,"<?xml version=""1.0""?>\n<Clock xmlns:dt=""urn:schemas-microsoft-com:datatypes""><Description dt:dt=""string"">E-Prime Primary Realtime Clock</Description><StartTime><Timestamp dt:dt=""int"">0</Timestamp><DateUtc dt:dt=""string"">2023-02-11T03:11:32Z</DateUtc></StartTime><FrequencyChanges><FrequencyChange><Frequency dt:dt=""r8"">2929843</Frequency><Timestamp dt:dt=""r8"">18156006879</Timestamp><Current dt:dt=""r8"">0</Current><DateUtc dt:dt=""string"">2023-02-11T03:11:32Z</DateUtc></FrequencyChange></FrequencyChanges></Clock>\n",Wisconsin-1160-4,59.956,1.0.0.562,1,976696428,2.0.10.356,2.0.10.356,02-11-2023,2/11/2023 3:11:33 AM,11:11:33,2.0.10.252,2,,,,2.0,1.0,1.0,BlockProc2,List3,3,,,,,,,,,,,,,,,,,,,,3.0,1.0,3.0,,,,ShapeProc2,List4,,,,,,,,,2.0,Button1.png,Button2.png,Button3.png,Button4.png,Bluetriangle2.png,,,,,,,x,0.0,,,,,,,0.0,TrialProc,ShapeList1,,,,2.0,1.0,2.0,1.0,x,0.0,0.0,281008.0,0.0,x,1200.0,Shape
Wisconsin,1160,4,"<?xml version=""1.0""?>\n<Clock xmlns:dt=""urn:schemas-microsoft-com:datatypes""><Description dt:dt=""string"">E-Prime Primary Realtime Clock</Description><StartTime><Timestamp dt:dt=""int"">0</Timestamp><DateUtc dt:dt=""string"">2023-02-11T03:11:32Z</DateUtc></StartTime><FrequencyChanges><FrequencyChange><Frequency dt:dt=""r8"">2929843</Frequency><Timestamp dt:dt=""r8"">18156006879</Timestamp><Current dt:dt=""r8"">0</Current><DateUtc dt:dt=""string"">2023-02-11T03:11:32Z</DateUtc></FrequencyChange></FrequencyChanges></Clock>\n",Wisconsin-1160-4,59.956,1.0.0.562,1,976696428,2.0.10.356,2.0.10.356,02-11-2023,2/11/2023 3:11:33 AM,11:11:33,2.0.10.252,2,,,,2.0,1.0,1.0,BlockProc2,List3,3,,,,,,,,,,,,,,,,,,,,3.0,1.0,3.0,,,,ShapeProc2,List4,,,,,,,,,3.0,Button1.png,Button2.png,Button3.png,Button4.png,Redstar3.png,,,,,,,v,1.0,,,,,,,0.0,TrialProc,ShapeList1,,,,6.0,1.0,3.0,0.0,v,0.0,0.0,284744.0,0.0,c,760.0,Shape
Wisconsin,1160,4,"<?xml version=""1.0""?>\n<Clock xmlns:dt=""urn:schemas-microsoft-com:datatypes""><Description dt:dt=""string"">E-Prime Primary Realtime Clock</Description><StartTime><Timestamp dt:dt=""int"">0</Timestamp><DateUtc dt:dt=""string"">2023-02-11T03:11:32Z</DateUtc></StartTime><FrequencyChanges><FrequencyChange><Frequency dt:dt=""r8"">2929843</Frequency><Timestamp dt:dt=""r8"">18156006879</Timestamp><Current dt:dt=""r8"">0</Current><DateUtc dt:dt=""string"">2023-02-11T03:11:32Z</DateUtc></FrequencyChange></FrequencyChanges></Clock>\n",Wisconsin-1160-4,59.956,1.0.0.562,1,976696428,2.0.10.356,2.0.10.356,02-11-2023,2/11/2023 3:11:33 AM,11:11:33,2.0.10.252,2,,,,2.0,1.0,1.0,BlockProc2,List3,3,,,,,,,,,,,,,,,,,,,,3.0,1.0,3.0,,,,ShapeProc2,List4,,,,,,,,,4.0,Button1.png,Button2.png,Button3.png,Button4.png,Greenstar3.png,,,,,,,v,0.0,,,,,,,0.0,TrialProc,ShapeList1,,,,3.0,1.0,4.0,1.0,v,1.0,0.0,288063.0,0.0,v,1425.0,Shape
Wisconsin,1160,4,"<?xml version=""1.0""?>\n<Clock xmlns:dt=""urn:schemas-microsoft-com:datatypes""><Description dt:dt=""string"">E-Prime Primary Realtime Clock</Description><StartTime><Timestamp dt:dt=""int"">0</Timestamp><DateUtc dt:dt=""string"">2023-02-11T03:11:32Z</DateUtc></StartTime><FrequencyChanges><FrequencyChange><Frequency dt:dt=""r8"">2929843</Frequency><Timestamp dt:dt=""r8"">18156006879</Timestamp><Current dt:dt=""r8"">0</Current><DateUtc dt:dt=""string"">2023-02-11T03:11:32Z</DateUtc></FrequencyChange></FrequencyChanges></Clock>\n",Wisconsin-1160-4,59.956,1.0.0.562,1,976696428,2.0.10.356,2.0.10.356,02-11-2023,2/11/2023 3:11:33 AM,11:11:33,2.0.10.252,2,,,,2.0,1.0,1.0,BlockProc2,List3,3,,,,,,,,,,,,,,,,,,,,3.0,1.0,3.0,,,,ShapeProc2,List4,,,,,,,,,5.0,Button1.png,Button2.png,Button3.png,Button4.png,Yellowstar2.png,,,,,,,v,0.0,,,,,,,0.0,TrialProc,ShapeList1,,,,9.0,1.0,5.0,1.0,v,0.0,0.0,292016.0,0.0,v,672.0,Shape
Wisconsin,1160,4,"<?xml version=""1.0""?>\n<Clock xmlns:dt=""urn:schemas-microsoft-com:datatypes""><Description dt:dt=""string"">E-Prime Primary Realtime Clock</Description><StartTime><Timestamp dt:dt=""int"">0</Timestamp><DateUtc dt:dt=""string"">2023-02-11T03:11:32Z</DateUtc></StartTime><FrequencyChanges><FrequencyChange><Frequency dt:dt=""r8"">2929843</Frequency><Timestamp dt:dt=""r8"">18156006879</Timestamp><Current dt:dt=""r8"">0</Current><DateUtc dt:dt=""string"">2023-02-11T03:11:32Z</DateUtc></FrequencyChange></FrequencyChanges></Clock>\n",Wisconsin-1160-4,59.956,1.0.0.562,1,976696428,2.0.10.356,2.0.10.356,02-11-2023,2/11/2023 3:11:33 AM,11:11:33,2.0.10.252,2,,,,2.0,1.0,1.0,BlockProc2,List3,3,,,,,,,,,,,,,,,,,,,,3.0,1.0,3.0,,,,ShapeProc2,List4,,,,,,,,,6.0,Button1.png,Button2.png,Button3.png,Button4.png,yellowcross4.png,,,,,,,c,0.0,,,,,,,0.0,TrialProc,ShapeList1,,,,8.0,1.0,6.0,1.0,c,0.0,1.0,295219.0,0.0,c,844.0,Shape
Wisconsin,1160,4,"<?xml version=""1.0""?>\n<Clock xmlns:dt=""urn:schemas-microsoft-com:datatypes""><Description dt:dt=""string"">E-Prime Primary Realtime Clock</Description><StartTime><Timestamp dt:dt=""int"">0</Timestamp><DateUtc dt:dt=""string"">2023-02-11T03:11:32Z</DateUtc></StartTime><FrequencyChanges><FrequencyChange><Frequency dt:dt=""r8"">2929843</Frequency><Timestamp dt:dt=""r8"">18156006879</Timestamp><Current dt:dt=""r8"">0</Current><DateUtc dt:dt=""string"">2023-02-11T03:11:32Z</DateUtc></FrequencyChange></FrequencyChanges></Clock>\n",Wisconsin-1160-4,59.956,1.0.0.562,1,976696428,2.0.10.356,2.0.10.356,02-11-2023,2/11/2023 3:11:33 AM,11:11:33,2.0.10.252,2,,,,2.0,1.0,1.0,BlockProc2,List3,3,,,,,,,,,,,,,,,,,,,,3.0,1.0,3.0,,,,ShapeProc2,List4,,,,,,,,,7.0,Button1.png,Button2.png,Button3.png,Button4.png,Redtriangle3.png,,,,,,,x,0.0,,,,,,,0.0,TrialProc,ShapeList1,,,,7.0,1.0,7.0,1.0,x,1.0,0.0,298604.0,0.0,x,723.0,Shape
Wisconsin,1160,4,"<?xml version=""1.0""?>\n<Clock xmlns:dt=""urn:schemas-microsoft-com:datatypes""><Description dt:dt=""string"">E-Prime Primary Realtime Clock</Description><StartTime><Timestamp dt:dt=""int"">0</Timestamp><DateUtc dt:dt=""string"">2023-02-11T03:11:32Z</DateUtc></StartTime><FrequencyChanges><FrequencyChange><Frequency dt:dt=""r8"">2929843</Frequency><Timestamp dt:dt=""r8"">18156006879</Timestamp><Current dt:dt=""r8"">0</Current><DateUtc dt:dt=""string"">2023-02-11T03:11:32Z</DateUtc></FrequencyChange></FrequencyChanges></Clock>\n",Wisconsin-1160-4,59.956,1.0.0.562,1,976696428,2.0.10.356,2.0.10.356,02-11-2023,2/11/2023 3:11:33 AM,11:11:33,2.0.10.252,2,,,,2.0,1.0,1.0,BlockProc2,List3,3,,,,,,,,,,,,,,,,,,,,3.0,1.0,3.0,,,,ShapeProc2,List4,,,,,,,,,8.0,Button1.png,Button2.png,Button3.png,Button4.png,Redcross2.png,,,,,,,c,0.0,,,,,,,0.0,TrialProc,ShapeList1,,,,5.0,1.0,8.0,1.0,c,0.0,1.0,301857.0,0.0,c,670.0,Shape
Wisconsin,1160,4,"<?xml version=""1.0""?>\n<Clock xmlns:dt=""urn:schemas-microsoft-com:datatypes""><Description dt:dt=""string"">E-Prime Primary Realtime Clock</Description><StartTime><Timestamp dt:dt=""int"">0</Timestamp><DateUtc dt:dt=""string"">2023-02-11T03:11:32Z</DateUtc></StartTime><FrequencyChanges><FrequencyChange><Frequency dt:dt=""r8"">2929843</Frequency><Timestamp dt:dt=""r8"">18156006879</Timestamp><Current dt:dt=""r8"">0</Current><DateUtc dt:dt=""string"">2023-02-11T03:11:32Z</DateUtc></FrequencyChange></FrequencyChanges></Clock>\n",Wisconsin-1160-4,59.956,1.0.0.562,1,976696428,2.0.10.356,2.0.10.356,02-11-2023,2/11/2023 3:11:33 AM,11:11:33,2.0.10.252,2,,,,2.0,1.0,1.0,BlockProc2,List3,3,,,,,,,,,,,,,,,,,,,,3.0,1.0,3.0,,,,ShapeProc2,List4,,,,,,,,,9.0,Button1.png,Button2.png,Button3.png,Button4.png,Yellowtriangle1.png,,,,,,,x,0.0,,,,,,,0.0,TrialProc,ShapeList1,,,,10.0,1.0,9.0,1.0,x,0.0,1.0,305059.0,0.0,x,732.0,Shape
Wisconsin,1160,4,"<?xml version=""1.0""?>\n<Clock xmlns:dt=""urn:schemas-microsoft-com:datatypes""><Description dt:dt=""string"">E-Prime Primary Realtime Clock</Description><StartTime><Timestamp dt:dt=""int"">0</Timestamp><DateUtc dt:dt=""string"">2023-02-11T03:11:32Z</DateUtc></StartTime><FrequencyChanges><FrequencyChange><Frequency dt:dt=""r8"">2929843</Frequency><Timestamp dt:dt=""r8"">18156006879</Timestamp><Current dt:dt=""r8"">0</Current><DateUtc dt:dt=""string"">2023-02-11T03:11:32Z</DateUtc></FrequencyChange></FrequencyChanges></Clock>\n",Wisconsin-1160-4,59.956,1.0.0.562,1,976696428,2.0.10.356,2.0.10.356,02-11-2023,2/11/2023 3:11:33 AM,11:11:33,2.0.10.252,2,,,,2.0,1.0,1.0,BlockProc2,List3,3,,,,,,,,,,,,,,,,,,,,3.0,1.0,3.0,,,,ShapeProc2,List4,,,,,,,,,10.0,Button1.png,Button2.png,Button3.png,Button4.png,redcircle1.png,,,,,,,z,0.0,,,,,,,0.0,TrialProc,ShapeList1,,,,4.0,1.0,10.0,1.0,z,0.0,1.0,308328.0,0.0,z,871.0,Shape
Wisconsin,1160,4,"<?xml version=""1.0""?>\n<Clock xmlns:dt=""urn:schemas-microsoft-com:datatypes""><Description dt:dt=""string"">E-Prime Primary Realtime Clock</Description><StartTime><Timestamp dt:dt=""int"">0</Timestamp><DateUtc dt:dt=""string"">2023-02-11T03:11:32Z</DateUtc></StartTime><FrequencyChanges><FrequencyChange><Frequency dt:dt=""r8"">2929843</Frequency><Timestamp dt:dt=""r8"">18156006879</Timestamp><Current dt:dt=""r8"">0</Current><DateUtc dt:dt=""string"">2023-02-11T03:11:32Z</DateUtc></FrequencyChange></FrequencyChanges></Clock>\n",Wisconsin-1160-4,59.956,1.0.0.562,1,976696428,2.0.10.356,2.0.10.356,02-11-2023,2/11/2023 3:11:33 AM,11:11:33,2.0.10.252,3,,,,1.0,1.0,2.0,BlockProc,List3,1,,,,,,,,,,,,,,,,,1.0,1.0,1.0,,,,,,,ColorProc,List2,,,,,,,,,1.0,BUTTON1.png,BUTTON2.PNG,BUTTON3.png,BUTTON4.png,bluecircle1.png,1.0,1.0,1.0,,,,v,1.0,,,,,,,0.0,TrialProc,ColorList,,,,,,,0.0,v,0.0,1.0,311731.0,0.0,z,764.0,color
Wisconsin,1160,4,"<?xml version=""1.0""?>\n<Clock xmlns:dt=""urn:schemas-microsoft-com:datatypes""><Description dt:dt=""string"">E-Prime Primary Realtime Clock</Description><StartTime><Timestamp dt:dt=""int"">0</Timestamp><DateUtc dt:dt=""string"">2023-02-11T03:11:32Z</DateUtc></StartTime><FrequencyChanges><FrequencyChange><Frequency dt:dt=""r8"">2929843</Frequency><Timestamp dt:dt=""r8"">18156006879</Timestamp><Current dt:dt=""r8"">0</Current><DateUtc dt:dt=""string"">2023-02-11T03:11:32Z</DateUtc></FrequencyChange></FrequencyChanges></Clock>\n",Wisconsin-1160-4,59.956,1.0.0.562,1,976696428,2.0.10.356,2.0.10.356,02-11-2023,2/11/2023 3:11:33 AM,11:11:33,2.0.10.252,3,,,,1.0,1.0,2.0,BlockProc,List3,1,,,,,,,,,,,,,,,,,1.0,1.0,1.0,,,,,,,ColorProc,List2,,,,,,,,,2.0,BUTTON1.png,BUTTON2.PNG,BUTTON3.png,BUTTON4.png,bluetriangle3.png,3.0,1.0,2.0,,,,v,0.0,,,,,,,0.0,TrialProc,ColorList,,,,,,,1.0,v,0.0,1.0,315033.0,0.0,v,1893.0,color
Wisconsin,1160,4,"<?xml version=""1.0""?>\n<Clock xmlns:dt=""urn:schemas-microsoft-com:datatypes""><Description dt:dt=""string"">E-Prime Primary Realtime Clock</Description><StartTime><Timestamp dt:dt=""int"">0</Timestamp><DateUtc dt:dt=""string"">2023-02-11T03:11:32Z</DateUtc></StartTime><FrequencyChanges><FrequencyChange><Frequency dt:dt=""r8"">2929843</Frequency><Timestamp dt:dt=""r8"">18156006879</Timestamp><Current dt:dt=""r8"">0</Current><DateUtc dt:dt=""string"">2023-02-11T03:11:32Z</DateUtc></FrequencyChange></FrequencyChanges></Clock>\n",Wisconsin-1160-4,59.956,1.0.0.562,1,976696428,2.0.10.356,2.0.10.356,02-11-2023,2/11/2023 3:11:33 AM,11:11:33,2.0.10.252,3,,,,1.0,1.0,2.0,BlockProc,List3,1,,,,,,,,,,,,,,,,,1.0,1.0,1.0,,,,,,,ColorProc,List2,,,,,,,,,3.0,BUTTON1.png,BUTTON2.PNG,BUTTON3.png,BUTTON4.png,greenstar2.png,5.0,1.0,3.0,,,,z,1.0,,,,,,,0.0,TrialProc,ColorList,,,,,,,0.0,z,0.0,1.0,319470.0,0.0,v,896.0,color
Wisconsin,1160,4,"<?xml version=""1.0""?>\n<Clock xmlns:dt=""urn:schemas-microsoft-com:datatypes""><Description dt:dt=""string"">E-Prime Primary Realtime Clock</Description><StartTime><Timestamp dt:dt=""int"">0</Timestamp><DateUtc dt:dt=""string"">2023-02-11T03:11:32Z</DateUtc></StartTime><FrequencyChanges><FrequencyChange><Frequency dt:dt=""r8"">2929843</Frequency><Timestamp dt:dt=""r8"">18156006879</Timestamp><Current dt:dt=""r8"">0</Current><DateUtc dt:dt=""string"">2023-02-11T03:11:32Z</DateUtc></FrequencyChange></FrequencyChanges></Clock>\n",Wisconsin-1160-4,59.956,1.0.0.562,1,976696428,2.0.10.356,2.0.10.356,02-11-2023,2/11/2023 3:11:33 AM,11:11:33,2.0.10.252,3,,,,1.0,1.0,2.0,BlockProc,List3,1,,,,,,,,,,,,,,,,,1.0,1.0,1.0,,,,,,,ColorProc,List2,,,,,,,,,4.0,BUTTON1.png,BUTTON2.PNG,BUTTON3.png,BUTTON4.png,redcircle3.png,8.0,1.0,4.0,,,,c,0.0,,,,,,,0.0,TrialProc,ColorList,,,,,,,1.0,c,0.0,1.0,322906.0,0.0,c,516.0,color
Wisconsin,1160,4,"<?xml version=""1.0""?>\n<Clock xmlns:dt=""urn:schemas-microsoft-com:datatypes""><Description dt:dt=""string"">E-Prime Primary Realtime Clock</Description><StartTime><Timestamp dt:dt=""int"">0</Timestamp><DateUtc dt:dt=""string"">2023-02-11T03:11:32Z</DateUtc></StartTime><FrequencyChanges><FrequencyChange><Frequency dt:dt=""r8"">2929843</Frequency><Timestamp dt:dt=""r8"">18156006879</Timestamp><Current dt:dt=""r8"">0</Current><DateUtc dt:dt=""string"">2023-02-11T03:11:32Z</DateUtc></FrequencyChange></FrequencyChanges></Clock>\n",Wisconsin-1160-4,59.956,1.0.0.562,1,976696428,2.0.10.356,2.0.10.356,02-11-2023,2/11/2023 3:11:33 AM,11:11:33,2.0.10.252,3,,,,1.0,1.0,2.0,BlockProc,List3,1,,,,,,,,,,,,,,,,,1.0,1.0,1.0,,,,,,,ColorProc,List2,,,,,,,,,5.0,BUTTON1.png,BUTTON2.PNG,BUTTON3.png,BUTTON4.png,bluecross2.png,2.0,1.0,5.0,,,,v,0.0,,,,,,,0.0,TrialProc,ColorList,,,,,,,1.0,v,0.0,1.0,325958.0,0.0,v,552.0,color
Wisconsin,1160,4,"<?xml version=""1.0""?>\n<Clock xmlns:dt=""urn:schemas-microsoft-com:datatypes""><Description dt:dt=""string"">E-Prime Primary Realtime Clock</Description><StartTime><Timestamp dt:dt=""int"">0</Timestamp><DateUtc dt:dt=""string"">2023-02-11T03:11:32Z</DateUtc></StartTime><FrequencyChanges><FrequencyChange><Frequency dt:dt=""r8"">2929843</Frequency><Timestamp dt:dt=""r8"">18156006879</Timestamp><Current dt:dt=""r8"">0</Current><DateUtc dt:dt=""string"">2023-02-11T03:11:32Z</DateUtc></FrequencyChange></FrequencyChanges></Clock>\n",Wisconsin-1160-4,59.956,1.0.0.562,1,976696428,2.0.10.356,2.0.10.356,02-11-2023,2/11/2023 3:11:33 AM,11:11:33,2.0.10.252,3,,,,1.0,1.0,2.0,BlockProc,List3,1,,,,,,,,,,,,,,,,,1.0,1.0,1.0,,,,,,,ColorProc,List2,,,,,,,,,6.0,BUTTON1.png,BUTTON2.PNG,BUTTON3.png,BUTTON4.png,greentriangle3.png,7.0,1.0,6.0,,,,z,0.0,,,,,,,0.0,TrialProc,ColorList,,,,,,,1.0,z,0.0,0.0,329043.0,0.0,z,523.0,color
Wisconsin,1160,4,"<?xml version=""1.0""?>\n<Clock xmlns:dt=""urn:schemas-microsoft-com:datatypes""><Description dt:dt=""string"">E-Prime Primary Realtime Clock</Description><StartTime><Timestamp dt:dt=""int"">0</Timestamp><DateUtc dt:dt=""string"">2023-02-11T03:11:32Z</DateUtc></StartTime><FrequencyChanges><FrequencyChange><Frequency dt:dt=""r8"">2929843</Frequency><Timestamp dt:dt=""r8"">18156006879</Timestamp><Current dt:dt=""r8"">0</Current><DateUtc dt:dt=""string"">2023-02-11T03:11:32Z</DateUtc></FrequencyChange></FrequencyChanges></Clock>\n",Wisconsin-1160-4,59.956,1.0.0.562,1,976696428,2.0.10.356,2.0.10.356,02-11-2023,2/11/2023 3:11:33 AM,11:11:33,2.0.10.252,3,,,,1.0,1.0,2.0,BlockProc,List3,1,,,,,,,,,,,,,,,,,1.0,1.0,1.0,,,,,,,ColorProc,List2,,,,,,,,,7.0,BUTTON1.png,BUTTON2.PNG,BUTTON3.png,BUTTON4.png,yellowstar3.png,10.0,1.0,7.0,,,,x,0.0,,,,,,,0.0,TrialProc,ColorList,,,,,,,1.0,x,0.0,1.0,332096.0,0.0,x,477.0,color
Wisconsin,1160,4,"<?xml version=""1.0""?>\n<Clock xmlns:dt=""urn:schemas-microsoft-com:datatypes""><Description dt:dt=""string"">E-Prime Primary Realtime Clock</Description><StartTime><Timestamp dt:dt=""int"">0</Timestamp><DateUtc dt:dt=""string"">2023-02-11T03:11:32Z</DateUtc></StartTime><FrequencyChanges><FrequencyChange><Frequency dt:dt=""r8"">2929843</Frequency><Timestamp dt:dt=""r8"">18156006879</Timestamp><Current dt:dt=""r8"">0</Current><DateUtc dt:dt=""string"">2023-02-11T03:11:32Z</DateUtc></FrequencyChange></FrequencyChanges></Clock>\n",Wisconsin-1160-4,59.956,1.0.0.562,1,976696428,2.0.10.356,2.0.10.356,02-11-2023,2/11/2023 3:11:33 AM,11:11:33,2.0.10.252,3,,,,1.0,1.0,2.0,BlockProc,List3,1,,,,,,,,,,,,,,,,,1.0,1.0,1.0,,,,,,,ColorProc,List2,,,,,,,,,8.0,BUTTON1.png,BUTTON2.PNG,BUTTON3.png,BUTTON4.png,greentriangle1.png,6.0,1.0,8.0,,,,z,0.0,,,,,,,0.0,TrialProc,ColorList,,,,,,,1.0,z,1.0,0.0,335114.0,0.0,z,451.0,color
Wisconsin,1160,4,"<?xml version=""1.0""?>\n<Clock xmlns:dt=""urn:schemas-microsoft-com:datatypes""><Description dt:dt=""string"">E-Prime Primary Realtime Clock</Description><StartTime><Timestamp dt:dt=""int"">0</Timestamp><DateUtc dt:dt=""string"">2023-02-11T03:11:32Z</DateUtc></StartTime><FrequencyChanges><FrequencyChange><Frequency dt:dt=""r8"">2929843</Frequency><Timestamp dt:dt=""r8"">18156006879</Timestamp><Current dt:dt=""r8"">0</Current><DateUtc dt:dt=""string"">2023-02-11T03:11:32Z</DateUtc></FrequencyChange></FrequencyChanges></Clock>\n",Wisconsin-1160-4,59.956,1.0.0.562,1,976696428,2.0.10.356,2.0.10.356,02-11-2023,2/11/2023 3:11:33 AM,11:11:33,2.0.10.252,3,,,,1.0,1.0,2.0,BlockProc,List3,1,,,,,,,,,,,,,,,,,1.0,1.0,1.0,,,,,,,ColorProc,List2,,,,,,,,,9.0,BUTTON1.png,BUTTON2.PNG,BUTTON3.png,BUTTON4.png,greencircle3.png,4.0,1.0,9.0,,,,z,0.0,,,,,,,0.0,TrialProc,ColorList,,,,,,,1.0,z,0.0,1.0,338100.0,0.0,z,441.0,color
Wisconsin,1160,4,"<?xml version=""1.0""?>\n<Clock xmlns:dt=""urn:schemas-microsoft-com:datatypes""><Description dt:dt=""string"">E-Prime Primary Realtime Clock</Description><StartTime><Timestamp dt:dt=""int"">0</Timestamp><DateUtc dt:dt=""string"">2023-02-11T03:11:32Z</DateUtc></StartTime><FrequencyChanges><FrequencyChange><Frequency dt:dt=""r8"">2929843</Frequency><Timestamp dt:dt=""r8"">18156006879</Timestamp><Current dt:dt=""r8"">0</Current><DateUtc dt:dt=""string"">2023-02-11T03:11:32Z</DateUtc></FrequencyChange></FrequencyChanges></Clock>\n",Wisconsin-1160-4,59.956,1.0.0.562,1,976696428,2.0.10.356,2.0.10.356,02-11-2023,2/11/2023 3:11:33 AM,11:11:33,2.0.10.252,3,,,,1.0,1.0,2.0,BlockProc,List3,1,,,,,,,,,,,,,,,,,1.0,1.0,1.0,,,,,,,ColorProc,List2,,,,,,,,,10.0,BUTTON1.png,BUTTON2.PNG,BUTTON3.png,BUTTON4.png,yellowcircle1.png,9.0,1.0,10.0,,,,x,0.0,,,,,,,0.0,TrialProc,ColorList,,,,,,,1.0,x,0.0,1.0,341069.0,0.0,x,528.0,color
Wisconsin,1160,4,"<?xml version=""1.0""?>\n<Clock xmlns:dt=""urn:schemas-microsoft-com:datatypes""><Description dt:dt=""string"">E-Prime Primary Realtime Clock</Description><StartTime><Timestamp dt:dt=""int"">0</Timestamp><DateUtc dt:dt=""string"">2023-02-11T03:11:32Z</DateUtc></StartTime><FrequencyChanges><FrequencyChange><Frequency dt:dt=""r8"">2929843</Frequency><Timestamp dt:dt=""r8"">18156006879</Timestamp><Current dt:dt=""r8"">0</Current><DateUtc dt:dt=""string"">2023-02-11T03:11:32Z</DateUtc></FrequencyChange></FrequencyChanges></Clock>\n",Wisconsin-1160-4,59.956,1.0.0.562,1,976696428,2.0.10.356,2.0.10.356,02-11-2023,2/11/2023 3:11:33 AM,11:11:33,2.0.10.252,3,,,,1.0,1.0,2.0,BlockProc,List3,2,,,,,,,,,,,,,,,,,2.0,1.0,2.0,,,,,,,NumberProc,List2,,,,,,,,,1.0,Button1.png,Button2.png,Button3.png,Button4.png,Yellowcross1.png,,,,,,,v,1.0,9.0,1.0,1.0,,,,0.0,TrialProc,NumberList,,,,,,,0.0,v,0.0,1.0,344138.0,0.0,c,2947.0,number
Wisconsin,1160,4,"<?xml version=""1.0""?>\n<Clock xmlns:dt=""urn:schemas-microsoft-com:datatypes""><Description dt:dt=""string"">E-Prime Primary Realtime Clock</Description><StartTime><Timestamp dt:dt=""int"">0</Timestamp><DateUtc dt:dt=""string"">2023-02-11T03:11:32Z</DateUtc></StartTime><FrequencyChanges><FrequencyChange><Frequency dt:dt=""r8"">2929843</Frequency><Timestamp dt:dt=""r8"">18156006879</Timestamp><Current dt:dt=""r8"">0</Current><DateUtc dt:dt=""string"">2023-02-11T03:11:32Z</DateUtc></FrequencyChange></FrequencyChanges></Clock>\n",Wisconsin-1160-4,59.956,1.0.0.562,1,976696428,2.0.10.356,2.0.10.356,02-11-2023,2/11/2023 3:11:33 AM,11:11:33,2.0.10.252,3,,,,1.0,1.0,2.0,BlockProc,List3,2,,,,,,,,,,,,,,,,,2.0,1.0,2.0,,,,,,,NumberProc,List2,,,,,,,,,2.0,Button1.png,Button2.png,Button3.png,Button4.png,Bluecircle4.png,,,,,,,x,0.0,1.0,1.0,2.0,,,,0.0,TrialProc,NumberList,,,,,,,1.0,x,0.0,1.0,349625.0,0.0,x,724.0,number
Wisconsin,1160,4,"<?xml version=""1.0""?>\n<Clock xmlns:dt=""urn:schemas-microsoft-com:datatypes""><Description dt:dt=""string"">E-Prime Primary Realtime Clock</Description><StartTime><Timestamp dt:dt=""int"">0</Timestamp><DateUtc dt:dt=""string"">2023-02-11T03:11:32Z</DateUtc></StartTime><FrequencyChanges><FrequencyChange><Frequency dt:dt=""r8"">2929843</Frequency><Timestamp dt:dt=""r8"">18156006879</Timestamp><Current dt:dt=""r8"">0</Current><DateUtc dt:dt=""string"">2023-02-11T03:11:32Z</DateUtc></FrequencyChange></FrequencyChanges></Clock>\n",Wisconsin-1160-4,59.956,1.0.0.562,1,976696428,2.0.10.356,2.0.10.356,02-11-2023,2/11/2023 3:11:33 AM,11:11:33,2.0.10.252,3,,,,1.0,1.0,2.0,BlockProc,List3,2,,,,,,,,,,,,,,,,,2.0,1.0,2.0,,,,,,,NumberProc,List2,,,,,,,,,3.0,Button1.png,Button2.png,Button3.png,Button4.png,Greencross3.png,,,,,,,c,0.0,5.0,1.0,3.0,,,,0.0,TrialProc,NumberList,,,,,,,1.0,c,0.0,1.0,352894.0,0.0,c,942.0,number
Wisconsin,1160,4,"<?xml version=""1.0""?>\n<Clock xmlns:dt=""urn:schemas-microsoft-com:datatypes""><Description dt:dt=""string"">E-Prime Primary Realtime Clock</Description><StartTime><Timestamp dt:dt=""int"">0</Timestamp><DateUtc dt:dt=""string"">2023-02-11T03:11:32Z</DateUtc></StartTime><FrequencyChanges><FrequencyChange><Frequency dt:dt=""r8"">2929843</Frequency><Timestamp dt:dt=""r8"">18156006879</Timestamp><Current dt:dt=""r8"">0</Current><DateUtc dt:dt=""string"">2023-02-11T03:11:32Z</DateUtc></FrequencyChange></FrequencyChanges></Clock>\n",Wisconsin-1160-4,59.956,1.0.0.562,1,976696428,2.0.10.356,2.0.10.356,02-11-2023,2/11/2023 3:11:33 AM,11:11:33,2.0.10.252,3,,,,1.0,1.0,2.0,BlockProc,List3,2,,,,,,,,,,,,,,,,,2.0,1.0,2.0,,,,,,,NumberProc,List2,,,,,,,,,4.0,Button1.png,Button2.png,Button3.png,Button4.png,Redtriangle4.png,,,,,,,x,0.0,8.0,1.0,4.0,,,,0.0,TrialProc,NumberList,,,,,,,1.0,x,0.0,1.0,356380.0,0.0,x,528.0,number
Wisconsin,1160,4,"<?xml version=""1.0""?>\n<Clock xmlns:dt=""urn:schemas-microsoft-com:datatypes""><Description dt:dt=""string"">E-Prime Primary Realtime Clock</Description><StartTime><Timestamp dt:dt=""int"">0</Timestamp><DateUtc dt:dt=""string"">2023-02-11T03:11:32Z</DateUtc></StartTime><FrequencyChanges><FrequencyChange><Frequency dt:dt=""r8"">2929843</Frequency><Timestamp dt:dt=""r8"">18156006879</Timestamp><Current dt:dt=""r8"">0</Current><DateUtc dt:dt=""string"">2023-02-11T03:11:32Z</DateUtc></FrequencyChange></FrequencyChanges></Clock>\n",Wisconsin-1160-4,59.956,1.0.0.562,1,976696428,2.0.10.356,2.0.10.356,02-11-2023,2/11/2023 3:11:33 AM,11:11:33,2.0.10.252,3,,,,1.0,1.0,2.0,BlockProc,List3,2,,,,,,,,,,,,,,,,,2.0,1.0,2.0,,,,,,,NumberProc,List2,,,,,,,,,5.0,Button1.png,Button2.png,Button3.png,Button4.png,Redcircle4.png,,,,,,,x,0.0,6.0,1.0,5.0,,,,0.0,TrialProc,NumberList,,,,,,,1.0,x,0.0,1.0,359449.0,0.0,x,1267.0,number
Wisconsin,1160,4,"<?xml version=""1.0""?>\n<Clock xmlns:dt=""urn:schemas-microsoft-com:datatypes""><Description dt:dt=""string"">E-Prime Primary Realtime Clock</Description><StartTime><Timestamp dt:dt=""int"">0</Timestamp><DateUtc dt:dt=""string"">2023-02-11T03:11:32Z</DateUtc></StartTime><FrequencyChanges><FrequencyChange><Frequency dt:dt=""r8"">2929843</Frequency><Timestamp dt:dt=""r8"">18156006879</Timestamp><Current dt:dt=""r8"">0</Current><DateUtc dt:dt=""string"">2023-02-11T03:11:32Z</DateUtc></FrequencyChange></FrequencyChanges></Clock>\n",Wisconsin-1160-4,59.956,1.0.0.562,1,976696428,2.0.10.356,2.0.10.356,02-11-2023,2/11/2023 3:11:33 AM,11:11:33,2.0.10.252,3,,,,1.0,1.0,2.0,BlockProc,List3,2,,,,,,,,,,,,,,,,,2.0,1.0,2.0,,,,,,,NumberProc,List2,,,,,,,,,6.0,Button1.png,Button2.png,Button3.png,Button4.png,Yellowcross3.png,,,,,,,c,0.0,10.0,1.0,6.0,,,,0.0,TrialProc,NumberList,,,,,,,1.0,c,0.0,1.0,363252.0,0.0,c,648.0,number
Wisconsin,1160,4,"<?xml version=""1.0""?>\n<Clock xmlns:dt=""urn:schemas-microsoft-com:datatypes""><Description dt:dt=""string"">E-Prime Primary Realtime Clock</Description><StartTime><Timestamp dt:dt=""int"">0</Timestamp><DateUtc dt:dt=""string"">2023-02-11T03:11:32Z</DateUtc></StartTime><FrequencyChanges><FrequencyChange><Frequency dt:dt=""r8"">2929843</Frequency><Timestamp dt:dt=""r8"">18156006879</Timestamp><Current dt:dt=""r8"">0</Current><DateUtc dt:dt=""string"">2023-02-11T03:11:32Z</DateUtc></FrequencyChange></FrequencyChanges></Clock>\n",Wisconsin-1160-4,59.956,1.0.0.562,1,976696428,2.0.10.356,2.0.10.356,02-11-2023,2/11/2023 3:11:33 AM,11:11:33,2.0.10.252,3,,,,1.0,1.0,2.0,BlockProc,List3,2,,,,,,,,,,,,,,,,,2.0,1.0,2.0,,,,,,,NumberProc,List2,,,,,,,,,7.0,Button1.png,Button2.png,Button3.png,Button4.png,Greencircle4.png,,,,,,,x,0.0,4.0,1.0,7.0,,,,0.0,TrialProc,NumberList,,,,,,,1.0,x,0.0,0.0,366437.0,0.0,x,535.0,number
Wisconsin,1160,4,"<?xml version=""1.0""?>\n<Clock xmlns:dt=""urn:schemas-microsoft-com:datatypes""><Description dt:dt=""string"">E-Prime Primary Realtime Clock</Description><StartTime><Timestamp dt:dt=""int"">0</Timestamp><DateUtc dt:dt=""string"">2023-02-11T03:11:32Z</DateUtc></StartTime><FrequencyChanges><FrequencyChange><Frequency dt:dt=""r8"">2929843</Frequency><Timestamp dt:dt=""r8"">18156006879</Timestamp><Current dt:dt=""r8"">0</Current><DateUtc dt:dt=""string"">2023-02-11T03:11:32Z</DateUtc></FrequencyChange></FrequencyChanges></Clock>\n",Wisconsin-1160-4,59.956,1.0.0.562,1,976696428,2.0.10.356,2.0.10.356,02-11-2023,2/11/2023 3:11:33 AM,11:11:33,2.0.10.252,3,,,,1.0,1.0,2.0,BlockProc,List3,2,,,,,,,,,,,,,,,,,2.0,1.0,2.0,,,,,,,NumberProc,List2,,,,,,,,,8.0,Button1.png,Button2.png,Button3.png,Button4.png,Redstar2.png,,,,,,,z,0.0,7.0,1.0,8.0,,,,0.0,TrialProc,NumberList,,,,,,,1.0,z,0.0,0.0,369506.0,0.0,z,793.0,number
Wisconsin,1160,4,"<?xml version=""1.0""?>\n<Clock xmlns:dt=""urn:schemas-microsoft-com:datatypes""><Description dt:dt=""string"">E-Prime Primary Realtime Clock</Description><StartTime><Timestamp dt:dt=""int"">0</Timestamp><DateUtc dt:dt=""string"">2023-02-11T03:11:32Z</DateUtc></StartTime><FrequencyChanges><FrequencyChange><Frequency dt:dt=""r8"">2929843</Frequency><Timestamp dt:dt=""r8"">18156006879</Timestamp><Current dt:dt=""r8"">0</Current><DateUtc dt:dt=""string"">2023-02-11T03:11:32Z</DateUtc></FrequencyChange></FrequencyChanges></Clock>\n",Wisconsin-1160-4,59.956,1.0.0.562,1,976696428,2.0.10.356,2.0.10.356,02-11-2023,2/11/2023 3:11:33 AM,11:11:33,2.0.10.252,3,,,,1.0,1.0,2.0,BlockProc,List3,2,,,,,,,,,,,,,,,,,2.0,1.0,2.0,,,,,,,NumberProc,List2,,,,,,,,,9.0,Button1.png,Button2.png,Button3.png,Button4.png,Bluestar2.png,,,,,,,z,1.0,2.0,1.0,9.0,,,,0.0,TrialProc,NumberList,,,,,,,0.0,z,0.0,1.0,372842.0,0.0,x,609.0,number
Wisconsin,1160,4,"<?xml version=""1.0""?>\n<Clock xmlns:dt=""urn:schemas-microsoft-com:datatypes""><Description dt:dt=""string"">E-Prime Primary Realtime Clock</Description><StartTime><Timestamp dt:dt=""int"">0</Timestamp><DateUtc dt:dt=""string"">2023-02-11T03:11:32Z</DateUtc></StartTime><FrequencyChanges><FrequencyChange><Frequency dt:dt=""r8"">2929843</Frequency><Timestamp dt:dt=""r8"">18156006879</Timestamp><Current dt:dt=""r8"">0</Current><DateUtc dt:dt=""string"">2023-02-11T03:11:32Z</DateUtc></FrequencyChange></FrequencyChanges></Clock>\n",Wisconsin-1160-4,59.956,1.0.0.562,1,976696428,2.0.10.356,2.0.10.356,02-11-2023,2/11/2023 3:11:33 AM,11:11:33,2.0.10.252,3,,,,1.0,1.0,2.0,BlockProc,List3,2,,,,,,,,,,,,,,,,,2.0,1.0,2.0,,,,,,,NumberProc,List2,,,,,,,,,10.0,Button1.png,Button2.png,Button3.png,Button4.png,Bluetriangle1.png,,,,,,,v,0.0,3.0,1.0,10.0,,,,0.0,TrialProc,NumberList,,,,,,,1.0,v,0.0,1.0,375978.0,0.0,v,801.0,number
Wisconsin,1160,4,"<?xml version=""1.0""?>\n<Clock xmlns:dt=""urn:schemas-microsoft-com:datatypes""><Description dt:dt=""string"">E-Prime Primary Realtime Clock</Description><StartTime><Timestamp dt:dt=""int"">0</Timestamp><DateUtc dt:dt=""string"">2023-02-11T03:11:32Z</DateUtc></StartTime><FrequencyChanges><FrequencyChange><Frequency dt:dt=""r8"">2929843</Frequency><Timestamp dt:dt=""r8"">18156006879</Timestamp><Current dt:dt=""r8"">0</Current><DateUtc dt:dt=""string"">2023-02-11T03:11:32Z</DateUtc></FrequencyChange></FrequencyChanges></Clock>\n",Wisconsin-1160-4,59.956,1.0.0.562,1,976696428,2.0.10.356,2.0.10.356,02-11-2023,2/11/2023 3:11:33 AM,11:11:33,2.0.10.252,3,,,,1.0,1.0,2.0,BlockProc,List3,3,,,,,,,,,,,,,,,,,3.0,1.0,3.0,,,,,,,ShapeProc,List2,,,,,,,,,1.0,Button1.png,Button2.png,Button3.png,Button4.png,yellowcircle3.png,,,,,,,z,0.0,,,,,,,0.0,TrialProc,ShapeList,8.0,1.0,1.0,,,,1.0,z,0.0,0.0,379313.0,0.0,z,2682.0,Shape
Wisconsin,1160,4,"<?xml version=""1.0""?>\n<Clock xmlns:dt=""urn:schemas-microsoft-com:datatypes""><Description dt:dt=""string"">E-Prime Primary Realtime Clock</Description><StartTime><Timestamp dt:dt=""int"">0</Timestamp><DateUtc dt:dt=""string"">2023-02-11T03:11:32Z</DateUtc></StartTime><FrequencyChanges><FrequencyChange><Frequency dt:dt=""r8"">2929843</Frequency><Timestamp dt:dt=""r8"">18156006879</Timestamp><Current dt:dt=""r8"">0</Current><DateUtc dt:dt=""string"">2023-02-11T03:11:32Z</DateUtc></FrequencyChange></FrequencyChanges></Clock>\n",Wisconsin-1160-4,59.956,1.0.0.562,1,976696428,2.0.10.356,2.0.10.356,02-11-2023,2/11/2023 3:11:33 AM,11:11:33,2.0.10.252,3,,,,1.0,1.0,2.0,BlockProc,List3,3,,,,,,,,,,,,,,,,,3.0,1.0,3.0,,,,,,,ShapeProc,List2,,,,,,,,,2.0,Button1.png,Button2.png,Button3.png,Button4.png,Bluecross4.png,,,,,,,c,0.0,,,,,,,0.0,TrialProc,ShapeList,2.0,1.0,2.0,,,,1.0,c,0.0,1.0,384534.0,0.0,c,1381.0,Shape
Wisconsin,1160,4,"<?xml version=""1.0""?>\n<Clock xmlns:dt=""urn:schemas-microsoft-com:datatypes""><Description dt:dt=""string"">E-Prime Primary Realtime Clock</Description><StartTime><Timestamp dt:dt=""int"">0</Timestamp><DateUtc dt:dt=""string"">2023-02-11T03:11:32Z</DateUtc></StartTime><FrequencyChanges><FrequencyChange><Frequency dt:dt=""r8"">2929843</Frequency><Timestamp dt:dt=""r8"">18156006879</Timestamp><Current dt:dt=""r8"">0</Current><DateUtc dt:dt=""string"">2023-02-11T03:11:32Z</DateUtc></FrequencyChange></FrequencyChanges></Clock>\n",Wisconsin-1160-4,59.956,1.0.0.562,1,976696428,2.0.10.356,2.0.10.356,02-11-2023,2/11/2023 3:11:33 AM,11:11:33,2.0.10.252,3,,,,1.0,1.0,2.0,BlockProc,List3,3,,,,,,,,,,,,,,,,,3.0,1.0,3.0,,,,,,,ShapeProc,List2,,,,,,,,,3.0,Button1.png,Button2.png,Button3.png,Button4.png,Bluecircle2.png,,,,,,,z,0.0,,,,,,,0.0,TrialProc,ShapeList,1.0,1.0,3.0,,,,1.0,z,1.0,0.0,388453.0,0.0,z,661.0,Shape
Wisconsin,1160,4,"<?xml version=""1.0""?>\n<Clock xmlns:dt=""urn:schemas-microsoft-com:datatypes""><Description dt:dt=""string"">E-Prime Primary Realtime Clock</Description><StartTime><Timestamp dt:dt=""int"">0</Timestamp><DateUtc dt:dt=""string"">2023-02-11T03:11:32Z</DateUtc></StartTime><FrequencyChanges><FrequencyChange><Frequency dt:dt=""r8"">2929843</Frequency><Timestamp dt:dt=""r8"">18156006879</Timestamp><Current dt:dt=""r8"">0</Current><DateUtc dt:dt=""string"">2023-02-11T03:11:32Z</DateUtc></FrequencyChange></FrequencyChanges></Clock>\n",Wisconsin-1160-4,59.956,1.0.0.562,1,976696428,2.0.10.356,2.0.10.356,02-11-2023,2/11/2023 3:11:33 AM,11:11:33,2.0.10.252,3,,,,1.0,1.0,2.0,BlockProc,List3,3,,,,,,,,,,,,,,,,,3.0,1.0,3.0,,,,,,,ShapeProc,List2,,,,,,,,,4.0,Button1.png,Button2.png,Button3.png,Button4.png,Yellowstar1.png,,,,,,,v,0.0,,,,,,,0.0,TrialProc,ShapeList,9.0,1.0,4.0,,,,1.0,v,0.0,1.0,391656.0,0.0,v,1218.0,Shape
Wisconsin,1160,4,"<?xml version=""1.0""?>\n<Clock xmlns:dt=""urn:schemas-microsoft-com:datatypes""><Description dt:dt=""string"">E-Prime Primary Realtime Clock</Description><StartTime><Timestamp dt:dt=""int"">0</Timestamp><DateUtc dt:dt=""string"">2023-02-11T03:11:32Z</DateUtc></StartTime><FrequencyChanges><FrequencyChange><Frequency dt:dt=""r8"">2929843</Frequency><Timestamp dt:dt=""r8"">18156006879</Timestamp><Current dt:dt=""r8"">0</Current><DateUtc dt:dt=""string"">2023-02-11T03:11:32Z</DateUtc></FrequencyChange></FrequencyChanges></Clock>\n",Wisconsin-1160-4,59.956,1.0.0.562,1,976696428,2.0.10.356,2.0.10.356,02-11-2023,2/11/2023 3:11:33 AM,11:11:33,2.0.10.252,3,,,,1.0,1.0,2.0,BlockProc,List3,3,,,,,,,,,,,,,,,,,3.0,1.0,3.0,,,,,,,ShapeProc,List2,,,,,,,,,5.0,Button1.png,Button2.png,Button3.png,Button4.png,Redcross1.png,,,,,,,c,0.0,,,,,,,0.0,TrialProc,ShapeList,5.0,1.0,5.0,,,,1.0,c,1.0,0.0,395408.0,0.0,c,730.0,Shape
Wisconsin,1160,4,"<?xml version=""1.0""?>\n<Clock xmlns:dt=""urn:schemas-microsoft-com:datatypes""><Description dt:dt=""string"">E-Prime Primary Realtime Clock</Description><StartTime><Timestamp dt:dt=""int"">0</Timestamp><DateUtc dt:dt=""string"">2023-02-11T03:11:32Z</DateUtc></StartTime><FrequencyChanges><FrequencyChange><Frequency dt:dt=""r8"">2929843</Frequency><Timestamp dt:dt=""r8"">18156006879</Timestamp><Current dt:dt=""r8"">0</Current><DateUtc dt:dt=""string"">2023-02-11T03:11:32Z</DateUtc></FrequencyChange></FrequencyChanges></Clock>\n",Wisconsin-1160-4,59.956,1.0.0.562,1,976696428,2.0.10.356,2.0.10.356,02-11-2023,2/11/2023 3:11:33 AM,11:11:33,2.0.10.252,3,,,,1.0,1.0,2.0,BlockProc,List3,3,,,,,,,,,,,,,,,,,3.0,1.0,3.0,,,,,,,ShapeProc,List2,,,,,,,,,6.0,Button1.png,Button2.png,Button3.png,Button4.png,Greentriangle4.png,,,,,,,x,0.0,,,,,,,0.0,TrialProc,ShapeList,4.0,1.0,6.0,,,,1.0,x,0.0,1.0,398678.0,0.0,x,740.0,Shape
Wisconsin,1160,4,"<?xml version=""1.0""?>\n<Clock xmlns:dt=""urn:schemas-microsoft-com:datatypes""><Description dt:dt=""string"">E-Prime Primary Realtime Clock</Description><StartTime><Timestamp dt:dt=""int"">0</Timestamp><DateUtc dt:dt=""string"">2023-02-11T03:11:32Z</DateUtc></StartTime><FrequencyChanges><FrequencyChange><Frequency dt:dt=""r8"">2929843</Frequency><Timestamp dt:dt=""r8"">18156006879</Timestamp><Current dt:dt=""r8"">0</Current><DateUtc dt:dt=""string"">2023-02-11T03:11:32Z</DateUtc></FrequencyChange></FrequencyChanges></Clock>\n",Wisconsin-1160-4,59.956,1.0.0.562,1,976696428,2.0.10.356,2.0.10.356,02-11-2023,2/11/2023 3:11:33 AM,11:11:33,2.0.10.252,3,,,,1.0,1.0,2.0,BlockProc,List3,3,,,,,,,,,,,,,,,,,3.0,1.0,3.0,,,,,,,ShapeProc,List2,,,,,,,,,7.0,Button1.png,Button2.png,Button3.png,Button4.png,Redtriangle1.png,,,,,,,x,0.0,,,,,,,0.0,TrialProc,ShapeList,7.0,1.0,7.0,,,,1.0,x,0.0,0.0,401963.0,0.0,x,1695.0,Shape
Wisconsin,1160,4,"<?xml version=""1.0""?>\n<Clock xmlns:dt=""urn:schemas-microsoft-com:datatypes""><Description dt:dt=""string"">E-Prime Primary Realtime Clock</Description><StartTime><Timestamp dt:dt=""int"">0</Timestamp><DateUtc dt:dt=""string"">2023-02-11T03:11:32Z</DateUtc></StartTime><FrequencyChanges><FrequencyChange><Frequency dt:dt=""r8"">2929843</Frequency><Timestamp dt:dt=""r8"">18156006879</Timestamp><Current dt:dt=""r8"">0</Current><DateUtc dt:dt=""string"">2023-02-11T03:11:32Z</DateUtc></FrequencyChange></FrequencyChanges></Clock>\n",Wisconsin-1160-4,59.956,1.0.0.562,1,976696428,2.0.10.356,2.0.10.356,02-11-2023,2/11/2023 3:11:33 AM,11:11:33,2.0.10.252,3,,,,1.0,1.0,2.0,BlockProc,List3,3,,,,,,,,,,,,,,,,,3.0,1.0,3.0,,,,,,,ShapeProc,List2,,,,,,,,,8.0,Button1.png,Button2.png,Button3.png,Button4.png,Greencross1.png,,,,,,,c,0.0,,,,,,,0.0,TrialProc,ShapeList,3.0,1.0,8.0,,,,1.0,c,0.0,1.0,406200.0,0.0,c,786.0,Shape
Wisconsin,1160,4,"<?xml version=""1.0""?>\n<Clock xmlns:dt=""urn:schemas-microsoft-com:datatypes""><Description dt:dt=""string"">E-Prime Primary Realtime Clock</Description><StartTime><Timestamp dt:dt=""int"">0</Timestamp><DateUtc dt:dt=""string"">2023-02-11T03:11:32Z</DateUtc></StartTime><FrequencyChanges><FrequencyChange><Frequency dt:dt=""r8"">2929843</Frequency><Timestamp dt:dt=""r8"">18156006879</Timestamp><Current dt:dt=""r8"">0</Current><DateUtc dt:dt=""string"">2023-02-11T03:11:32Z</DateUtc></FrequencyChange></FrequencyChanges></Clock>\n",Wisconsin-1160-4,59.956,1.0.0.562,1,976696428,2.0.10.356,2.0.10.356,02-11-2023,2/11/2023 3:11:33 AM,11:11:33,2.0.10.252,3,,,,1.0,1.0,2.0,BlockProc,List3,3,,,,,,,,,,,,,,,,,3.0,1.0,3.0,,,,,,,ShapeProc,List2,,,,,,,,,9.0,Button1.png,Button2.png,Button3.png,Button4.png,Redcross4.png,,,,,,,c,0.0,,,,,,,0.0,TrialProc,ShapeList,6.0,1.0,9.0,,,,1.0,c,0.0,1.0,409519.0,0.0,c,1194.0,Shape
Wisconsin,1160,4,"<?xml version=""1.0""?>\n<Clock xmlns:dt=""urn:schemas-microsoft-com:datatypes""><Description dt:dt=""string"">E-Prime Primary Realtime Clock</Description><StartTime><Timestamp dt:dt=""int"">0</Timestamp><DateUtc dt:dt=""string"">2023-02-11T03:11:32Z</DateUtc></StartTime><FrequencyChanges><FrequencyChange><Frequency dt:dt=""r8"">2929843</Frequency><Timestamp dt:dt=""r8"">18156006879</Timestamp><Current dt:dt=""r8"">0</Current><DateUtc dt:dt=""string"">2023-02-11T03:11:32Z</DateUtc></FrequencyChange></FrequencyChanges></Clock>\n",Wisconsin-1160-4,59.956,1.0.0.562,1,976696428,2.0.10.356,2.0.10.356,02-11-2023,2/11/2023 3:11:33 AM,11:11:33,2.0.10.252,3,,,,1.0,1.0,2.0,BlockProc,List3,3,,,,,,,,,,,,,,,,,3.0,1.0,3.0,,,,,,,ShapeProc,List2,,,,,,,,,10.0,Button1.png,Button2.png,Button3.png,Button4.png,Yellowstar4.png,,,,,,,v,0.0,,,,,,,0.0,TrialProc,ShapeList,10.0,1.0,10.0,,,,1.0,v,0.0,1.0,413255.0,0.0,v,850.0,Shape
