ExperimentName,Subject,Session,Clock.Information,DataFile.Basename,Display.RefreshRate,ExperimentVersion,Group,RandomSeed,RuntimeVersion,RuntimeVersionExpected,SessionDate,SessionStartDateTimeUtc,SessionTime,StudioVersion,Block,List1,List1.Cycle,List1.Sample,List3,List3.Cycle,List3.Sample,Procedure[Block],Running[Block],Trial,CardIMG1[Trial],CardIMG2[Trial],CardIMG3[Trial],CardIMG4[Trial],CardStim[Trial],Category,CorrectAnswer[Trial],FeedbackDisplay2.ACC,FeedbackDisplay2.CRESP,FeedbackDisplay2.DurationError,FeedbackDisplay2.OnsetDelay,FeedbackDisplay2.OnsetTime,FeedbackDisplay2.OnsetToOnsetTime,FeedbackDisplay2.RESP,FeedbackDisplay2.RT,FeedbackDisplay2.RTTime,List2,List2.Cycle,List2.Sample,List4,List4.Cycle,List4.Sample,PracticeList,PracticeList.Cycle,PracticeList.Sample,Procedure[Trial],Running[Trial],Slide5.ACC,Slide5.CRESP,Slide5.DurationError,Slide5.OnsetDelay,Slide5.OnsetTime,Slide5.OnsetToOnsetTime,Slide5.RESP,Slide5.RT,SubTrial,CardIMG1[SubTrial],CardIMG2[SubTrial],CardIMG3[SubTrial],CardIMG4[SubTrial],CardStim[SubTrial],ColorList,ColorList.Cycle,ColorList.Sample,ColorList2,ColorList2.Cycle,ColorList2.Sample,CorrectAnswer[SubTrial],NonPerseverativeError,NumberList,NumberList.Cycle,NumberList.Sample,NumberList1,NumberList1.Cycle,NumberList1.Sample,PerseverativeError,Procedure[SubTrial],Running[SubTrial],ShapeList,ShapeList.Cycle,ShapeList.Sample,ShapeList1,ShapeList1.Cycle,ShapeList1.Sample,Stimulus.ACC,Stimulus.CRESP,Stimulus.DurationError,Stimulus.OnsetDelay,Stimulus.OnsetTime,Stimulus.OnsetToOnsetTime,Stimulus.RESP,Stimulus.RT,TrialType
Wisconsin,1171,3,"<?xml version=""1.0""?>\n<Clock xmlns:dt=""urn:schemas-microsoft-com:datatypes""><Description dt:dt=""string"">E-Prime Primary Realtime Clock</Description><StartTime><Timestamp dt:dt=""int"">0</Timestamp><DateUtc dt:dt=""string"">2022-12-20T12:01:31Z</DateUtc></StartTime><FrequencyChanges><FrequencyChange><Frequency dt:dt=""r8"">2929863</Frequency><Timestamp dt:dt=""r8"">15397368275</Timestamp><Current dt:dt=""r8"">0</Current><DateUtc dt:dt=""string"">2022-12-20T12:01:31Z</DateUtc></FrequencyChange></FrequencyChanges></Clock>\n",Wisconsin-1171-3,59.957,1.0.0.549,1,-1781922421,2.0.10.356,2.0.10.356,12-20-2022,,20:01:31,2.0.10.252,1,1.0,1.0,1.0,,,,Practicebloc,List1,1,Button1.png,Button2.png,Button3.png,Button4.png,Greencircle3.png,顏色,z,0.0,,0.0,17.0,103688.0,0.0,,0.0,0.0,,,,,,,1.0,1.0,1.0,PracticeTrialProc,PracticeList,1.0,z,0.0,1.0,103005.0,0.0,z,662.0,,,,,,,,,,,,,,,,,,,,,,,,,,,,,,,,,,,,,,
Wisconsin,1171,3,"<?xml version=""1.0""?>\n<Clock xmlns:dt=""urn:schemas-microsoft-com:datatypes""><Description dt:dt=""string"">E-Prime Primary Realtime Clock</Description><StartTime><Timestamp dt:dt=""int"">0</Timestamp><DateUtc dt:dt=""string"">2022-12-20T12:01:31Z</DateUtc></StartTime><FrequencyChanges><FrequencyChange><Frequency dt:dt=""r8"">2929863</Frequency><Timestamp dt:dt=""r8"">15397368275</Timestamp><Current dt:dt=""r8"">0</Current><DateUtc dt:dt=""string"">2022-12-20T12:01:31Z</DateUtc></FrequencyChange></FrequencyChanges></Clock>\n",Wisconsin-1171-3,59.957,1.0.0.549,1,-1781922421,2.0.10.356,2.0.10.356,12-20-2022,,20:01:31,2.0.10.252,1,1.0,1.0,1.0,,,,Practicebloc,List1,2,Button1.png,Button2.png,Button3.png,Button4.png,Redstar2.png,顏色,c,0.0,,0.0,23.0,107658.0,0.0,,0.0,0.0,,,,,,,2.0,1.0,2.0,PracticeTrialProc,PracticeList,1.0,c,0.0,1.0,106240.0,0.0,c,1395.0,,,,,,,,,,,,,,,,,,,,,,,,,,,,,,,,,,,,,,
Wisconsin,1171,3,"<?xml version=""1.0""?>\n<Clock xmlns:dt=""urn:schemas-microsoft-com:datatypes""><Description dt:dt=""string"">E-Prime Primary Realtime Clock</Description><StartTime><Timestamp dt:dt=""int"">0</Timestamp><DateUtc dt:dt=""string"">2022-12-20T12:01:31Z</DateUtc></StartTime><FrequencyChanges><FrequencyChange><Frequency dt:dt=""r8"">2929863</Frequency><Timestamp dt:dt=""r8"">15397368275</Timestamp><Current dt:dt=""r8"">0</Current><DateUtc dt:dt=""string"">2022-12-20T12:01:31Z</DateUtc></FrequencyChange></FrequencyChanges></Clock>\n",Wisconsin-1171-3,59.957,1.0.0.549,1,-1781922421,2.0.10.356,2.0.10.356,12-20-2022,,20:01:31,2.0.10.252,1,1.0,1.0,1.0,,,,Practicebloc,List1,3,Button1.png,Button2.png,Button3.png,Button4.png,Bluetriangle1.png,形狀,x,0.0,,0.0,21.0,112011.0,0.0,,0.0,0.0,,,,,,,3.0,1.0,3.0,PracticeTrialProc,PracticeList,0.0,x,0.0,1.0,110210.0,0.0,v,1777.0,,,,,,,,,,,,,,,,,,,,,,,,,,,,,,,,,,,,,,
Wisconsin,1171,3,"<?xml version=""1.0""?>\n<Clock xmlns:dt=""urn:schemas-microsoft-com:datatypes""><Description dt:dt=""string"">E-Prime Primary Realtime Clock</Description><StartTime><Timestamp dt:dt=""int"">0</Timestamp><DateUtc dt:dt=""string"">2022-12-20T12:01:31Z</DateUtc></StartTime><FrequencyChanges><FrequencyChange><Frequency dt:dt=""r8"">2929863</Frequency><Timestamp dt:dt=""r8"">15397368275</Timestamp><Current dt:dt=""r8"">0</Current><DateUtc dt:dt=""string"">2022-12-20T12:01:31Z</DateUtc></FrequencyChange></FrequencyChanges></Clock>\n",Wisconsin-1171-3,59.957,1.0.0.549,1,-1781922421,2.0.10.356,2.0.10.356,12-20-2022,,20:01:31,2.0.10.252,1,1.0,1.0,1.0,,,,Practicebloc,List1,4,Button1.png,Button2.png,Button3.png,Button4.png,greenstar2.png,形狀,v,0.0,,0.0,12.0,116815.0,0.0,,0.0,0.0,,,,,,,4.0,1.0,4.0,PracticeTrialProc,PracticeList,1.0,v,0.0,1.0,114563.0,0.0,v,2239.0,,,,,,,,,,,,,,,,,,,,,,,,,,,,,,,,,,,,,,
Wisconsin,1171,3,"<?xml version=""1.0""?>\n<Clock xmlns:dt=""urn:schemas-microsoft-com:datatypes""><Description dt:dt=""string"">E-Prime Primary Realtime Clock</Description><StartTime><Timestamp dt:dt=""int"">0</Timestamp><DateUtc dt:dt=""string"">2022-12-20T12:01:31Z</DateUtc></StartTime><FrequencyChanges><FrequencyChange><Frequency dt:dt=""r8"">2929863</Frequency><Timestamp dt:dt=""r8"">15397368275</Timestamp><Current dt:dt=""r8"">0</Current><DateUtc dt:dt=""string"">2022-12-20T12:01:31Z</DateUtc></FrequencyChange></FrequencyChanges></Clock>\n",Wisconsin-1171-3,59.957,1.0.0.549,1,-1781922421,2.0.10.356,2.0.10.356,12-20-2022,,20:01:31,2.0.10.252,1,1.0,1.0,1.0,,,,Practicebloc,List1,5,Button1.png,Button2.png,Button3.png,Button4.png,BlueCross4.png,數目,x,0.0,,0.0,10.0,121184.0,0.0,,0.0,0.0,,,,,,,5.0,1.0,5.0,PracticeTrialProc,PracticeList,0.0,x,0.0,0.0,119366.0,0.0,c,1804.0,,,,,,,,,,,,,,,,,,,,,,,,,,,,,,,,,,,,,,
Wisconsin,1171,3,"<?xml version=""1.0""?>\n<Clock xmlns:dt=""urn:schemas-microsoft-com:datatypes""><Description dt:dt=""string"">E-Prime Primary Realtime Clock</Description><StartTime><Timestamp dt:dt=""int"">0</Timestamp><DateUtc dt:dt=""string"">2022-12-20T12:01:31Z</DateUtc></StartTime><FrequencyChanges><FrequencyChange><Frequency dt:dt=""r8"">2929863</Frequency><Timestamp dt:dt=""r8"">15397368275</Timestamp><Current dt:dt=""r8"">0</Current><DateUtc dt:dt=""string"">2022-12-20T12:01:31Z</DateUtc></FrequencyChange></FrequencyChanges></Clock>\n",Wisconsin-1171-3,59.957,1.0.0.549,1,-1781922421,2.0.10.356,2.0.10.356,12-20-2022,,20:01:31,2.0.10.252,1,1.0,1.0,1.0,,,,Practicebloc,List1,6,Button1.png,Button2.png,Button3.png,Button4.png,yellowcircle2.png,數目,z,0.0,,0.0,20.0,125638.0,0.0,,0.0,0.0,,,,,,,6.0,1.0,6.0,PracticeTrialProc,PracticeList,1.0,z,0.0,1.0,123736.0,0.0,z,1882.0,,,,,,,,,,,,,,,,,,,,,,,,,,,,,,,,,,,,,,
Wisconsin,1171,3,"<?xml version=""1.0""?>\n<Clock xmlns:dt=""urn:schemas-microsoft-com:datatypes""><Description dt:dt=""string"">E-Prime Primary Realtime Clock</Description><StartTime><Timestamp dt:dt=""int"">0</Timestamp><DateUtc dt:dt=""string"">2022-12-20T12:01:31Z</DateUtc></StartTime><FrequencyChanges><FrequencyChange><Frequency dt:dt=""r8"">2929863</Frequency><Timestamp dt:dt=""r8"">15397368275</Timestamp><Current dt:dt=""r8"">0</Current><DateUtc dt:dt=""string"">2022-12-20T12:01:31Z</DateUtc></FrequencyChange></FrequencyChanges></Clock>\n",Wisconsin-1171-3,59.957,1.0.0.549,1,-1781922421,2.0.10.356,2.0.10.356,12-20-2022,,20:01:31,2.0.10.252,2,,,,2.0,1.0,1.0,BlockProc2,List3,1,,,,,,,,,,,,,,,,,,,,3.0,1.0,1.0,,,,ShapeProc2,List4,,,,,,,,,1.0,Button1.png,Button2.png,Button3.png,Button4.png,Redtriangle3.png,,,,,,,x,1.0,,,,,,,0.0,TrialProc,ShapeList1,,,,7.0,1.0,1.0,0.0,x,0.0,1.0,201226.0,0.0,c,1651.0,Shape
Wisconsin,1171,3,"<?xml version=""1.0""?>\n<Clock xmlns:dt=""urn:schemas-microsoft-com:datatypes""><Description dt:dt=""string"">E-Prime Primary Realtime Clock</Description><StartTime><Timestamp dt:dt=""int"">0</Timestamp><DateUtc dt:dt=""string"">2022-12-20T12:01:31Z</DateUtc></StartTime><FrequencyChanges><FrequencyChange><Frequency dt:dt=""r8"">2929863</Frequency><Timestamp dt:dt=""r8"">15397368275</Timestamp><Current dt:dt=""r8"">0</Current><DateUtc dt:dt=""string"">2022-12-20T12:01:31Z</DateUtc></FrequencyChange></FrequencyChanges></Clock>\n",Wisconsin-1171-3,59.957,1.0.0.549,1,-1781922421,2.0.10.356,2.0.10.356,12-20-2022,,20:01:31,2.0.10.252,2,,,,2.0,1.0,1.0,BlockProc2,List3,1,,,,,,,,,,,,,,,,,,,,3.0,1.0,1.0,,,,ShapeProc2,List4,,,,,,,,,2.0,Button1.png,Button2.png,Button3.png,Button4.png,yellowcross4.png,,,,,,,c,0.0,,,,,,,0.0,TrialProc,ShapeList1,,,,8.0,1.0,2.0,1.0,c,0.0,1.0,205412.0,0.0,c,3337.0,Shape
Wisconsin,1171,3,"<?xml version=""1.0""?>\n<Clock xmlns:dt=""urn:schemas-microsoft-com:datatypes""><Description dt:dt=""string"">E-Prime Primary Realtime Clock</Description><StartTime><Timestamp dt:dt=""int"">0</Timestamp><DateUtc dt:dt=""string"">2022-12-20T12:01:31Z</DateUtc></StartTime><FrequencyChanges><FrequencyChange><Frequency dt:dt=""r8"">2929863</Frequency><Timestamp dt:dt=""r8"">15397368275</Timestamp><Current dt:dt=""r8"">0</Current><DateUtc dt:dt=""string"">2022-12-20T12:01:31Z</DateUtc></FrequencyChange></FrequencyChanges></Clock>\n",Wisconsin-1171-3,59.957,1.0.0.549,1,-1781922421,2.0.10.356,2.0.10.356,12-20-2022,,20:01:31,2.0.10.252,2,,,,2.0,1.0,1.0,BlockProc2,List3,1,,,,,,,,,,,,,,,,,,,,3.0,1.0,1.0,,,,ShapeProc2,List4,,,,,,,,,3.0,Button1.png,Button2.png,Button3.png,Button4.png,redcircle1.png,,,,,,,z,0.0,,,,,,,0.0,TrialProc,ShapeList1,,,,4.0,1.0,3.0,1.0,z,0.0,1.0,211283.0,0.0,z,1322.0,Shape
Wisconsin,1171,3,"<?xml version=""1.0""?>\n<Clock xmlns:dt=""urn:schemas-microsoft-com:datatypes""><Description dt:dt=""string"">E-Prime Primary Realtime Clock</Description><StartTime><Timestamp dt:dt=""int"">0</Timestamp><DateUtc dt:dt=""string"">2022-12-20T12:01:31Z</DateUtc></StartTime><FrequencyChanges><FrequencyChange><Frequency dt:dt=""r8"">2929863</Frequency><Timestamp dt:dt=""r8"">15397368275</Timestamp><Current dt:dt=""r8"">0</Current><DateUtc dt:dt=""string"">2022-12-20T12:01:31Z</DateUtc></FrequencyChange></FrequencyChanges></Clock>\n",Wisconsin-1171-3,59.957,1.0.0.549,1,-1781922421,2.0.10.356,2.0.10.356,12-20-2022,,20:01:31,2.0.10.252,2,,,,2.0,1.0,1.0,BlockProc2,List3,1,,,,,,,,,,,,,,,,,,,,3.0,1.0,1.0,,,,ShapeProc2,List4,,,,,,,,,4.0,Button1.png,Button2.png,Button3.png,Button4.png,Redcross2.png,,,,,,,c,0.0,,,,,,,0.0,TrialProc,ShapeList1,,,,5.0,1.0,4.0,1.0,c,0.0,1.0,215136.0,0.0,c,1020.0,Shape
Wisconsin,1171,3,"<?xml version=""1.0""?>\n<Clock xmlns:dt=""urn:schemas-microsoft-com:datatypes""><Description dt:dt=""string"">E-Prime Primary Realtime Clock</Description><StartTime><Timestamp dt:dt=""int"">0</Timestamp><DateUtc dt:dt=""string"">2022-12-20T12:01:31Z</DateUtc></StartTime><FrequencyChanges><FrequencyChange><Frequency dt:dt=""r8"">2929863</Frequency><Timestamp dt:dt=""r8"">15397368275</Timestamp><Current dt:dt=""r8"">0</Current><DateUtc dt:dt=""string"">2022-12-20T12:01:31Z</DateUtc></FrequencyChange></FrequencyChanges></Clock>\n",Wisconsin-1171-3,59.957,1.0.0.549,1,-1781922421,2.0.10.356,2.0.10.356,12-20-2022,,20:01:31,2.0.10.252,2,,,,2.0,1.0,1.0,BlockProc2,List3,1,,,,,,,,,,,,,,,,,,,,3.0,1.0,1.0,,,,ShapeProc2,List4,,,,,,,,,5.0,Button1.png,Button2.png,Button3.png,Button4.png,Yellowtriangle1.png,,,,,,,x,0.0,,,,,,,0.0,TrialProc,ShapeList1,,,,10.0,1.0,5.0,1.0,x,0.0,1.0,218688.0,0.0,x,1004.0,Shape
Wisconsin,1171,3,"<?xml version=""1.0""?>\n<Clock xmlns:dt=""urn:schemas-microsoft-com:datatypes""><Description dt:dt=""string"">E-Prime Primary Realtime Clock</Description><StartTime><Timestamp dt:dt=""int"">0</Timestamp><DateUtc dt:dt=""string"">2022-12-20T12:01:31Z</DateUtc></StartTime><FrequencyChanges><FrequencyChange><Frequency dt:dt=""r8"">2929863</Frequency><Timestamp dt:dt=""r8"">15397368275</Timestamp><Current dt:dt=""r8"">0</Current><DateUtc dt:dt=""string"">2022-12-20T12:01:31Z</DateUtc></FrequencyChange></FrequencyChanges></Clock>\n",Wisconsin-1171-3,59.957,1.0.0.549,1,-1781922421,2.0.10.356,2.0.10.356,12-20-2022,,20:01:31,2.0.10.252,2,,,,2.0,1.0,1.0,BlockProc2,List3,1,,,,,,,,,,,,,,,,,,,,3.0,1.0,1.0,,,,ShapeProc2,List4,,,,,,,,,6.0,Button1.png,Button2.png,Button3.png,Button4.png,Bluetriangle2.png,,,,,,,x,1.0,,,,,,,0.0,TrialProc,ShapeList1,,,,2.0,1.0,6.0,0.0,x,0.0,1.0,222224.0,0.0,z,2876.0,Shape
Wisconsin,1171,3,"<?xml version=""1.0""?>\n<Clock xmlns:dt=""urn:schemas-microsoft-com:datatypes""><Description dt:dt=""string"">E-Prime Primary Realtime Clock</Description><StartTime><Timestamp dt:dt=""int"">0</Timestamp><DateUtc dt:dt=""string"">2022-12-20T12:01:31Z</DateUtc></StartTime><FrequencyChanges><FrequencyChange><Frequency dt:dt=""r8"">2929863</Frequency><Timestamp dt:dt=""r8"">15397368275</Timestamp><Current dt:dt=""r8"">0</Current><DateUtc dt:dt=""string"">2022-12-20T12:01:31Z</DateUtc></FrequencyChange></FrequencyChanges></Clock>\n",Wisconsin-1171-3,59.957,1.0.0.549,1,-1781922421,2.0.10.356,2.0.10.356,12-20-2022,,20:01:31,2.0.10.252,2,,,,2.0,1.0,1.0,BlockProc2,List3,1,,,,,,,,,,,,,,,,,,,,3.0,1.0,1.0,,,,ShapeProc2,List4,,,,,,,,,7.0,Button1.png,Button2.png,Button3.png,Button4.png,Bluecircle3.png,,,,,,,z,0.0,,,,,,,0.0,TrialProc,ShapeList1,,,,1.0,1.0,7.0,1.0,z,0.0,1.0,227628.0,0.0,z,1824.0,Shape
Wisconsin,1171,3,"<?xml version=""1.0""?>\n<Clock xmlns:dt=""urn:schemas-microsoft-com:datatypes""><Description dt:dt=""string"">E-Prime Primary Realtime Clock</Description><StartTime><Timestamp dt:dt=""int"">0</Timestamp><DateUtc dt:dt=""string"">2022-12-20T12:01:31Z</DateUtc></StartTime><FrequencyChanges><FrequencyChange><Frequency dt:dt=""r8"">2929863</Frequency><Timestamp dt:dt=""r8"">15397368275</Timestamp><Current dt:dt=""r8"">0</Current><DateUtc dt:dt=""string"">2022-12-20T12:01:31Z</DateUtc></FrequencyChange></FrequencyChanges></Clock>\n",Wisconsin-1171-3,59.957,1.0.0.549,1,-1781922421,2.0.10.356,2.0.10.356,12-20-2022,,20:01:31,2.0.10.252,2,,,,2.0,1.0,1.0,BlockProc2,List3,1,,,,,,,,,,,,,,,,,,,,3.0,1.0,1.0,,,,ShapeProc2,List4,,,,,,,,,8.0,Button1.png,Button2.png,Button3.png,Button4.png,Redstar3.png,,,,,,,v,0.0,,,,,,,0.0,TrialProc,ShapeList1,,,,6.0,1.0,8.0,1.0,v,0.0,1.0,231981.0,0.0,v,2670.0,Shape
Wisconsin,1171,3,"<?xml version=""1.0""?>\n<Clock xmlns:dt=""urn:schemas-microsoft-com:datatypes""><Description dt:dt=""string"">E-Prime Primary Realtime Clock</Description><StartTime><Timestamp dt:dt=""int"">0</Timestamp><DateUtc dt:dt=""string"">2022-12-20T12:01:31Z</DateUtc></StartTime><FrequencyChanges><FrequencyChange><Frequency dt:dt=""r8"">2929863</Frequency><Timestamp dt:dt=""r8"">15397368275</Timestamp><Current dt:dt=""r8"">0</Current><DateUtc dt:dt=""string"">2022-12-20T12:01:31Z</DateUtc></FrequencyChange></FrequencyChanges></Clock>\n",Wisconsin-1171-3,59.957,1.0.0.549,1,-1781922421,2.0.10.356,2.0.10.356,12-20-2022,,20:01:31,2.0.10.252,2,,,,2.0,1.0,1.0,BlockProc2,List3,1,,,,,,,,,,,,,,,,,,,,3.0,1.0,1.0,,,,ShapeProc2,List4,,,,,,,,,9.0,Button1.png,Button2.png,Button3.png,Button4.png,Yellowstar2.png,,,,,,,v,0.0,,,,,,,0.0,TrialProc,ShapeList1,,,,9.0,1.0,9.0,1.0,v,0.0,1.0,237185.0,0.0,v,1242.0,Shape
Wisconsin,1171,3,"<?xml version=""1.0""?>\n<Clock xmlns:dt=""urn:schemas-microsoft-com:datatypes""><Description dt:dt=""string"">E-Prime Primary Realtime Clock</Description><StartTime><Timestamp dt:dt=""int"">0</Timestamp><DateUtc dt:dt=""string"">2022-12-20T12:01:31Z</DateUtc></StartTime><FrequencyChanges><FrequencyChange><Frequency dt:dt=""r8"">2929863</Frequency><Timestamp dt:dt=""r8"">15397368275</Timestamp><Current dt:dt=""r8"">0</Current><DateUtc dt:dt=""string"">2022-12-20T12:01:31Z</DateUtc></FrequencyChange></FrequencyChanges></Clock>\n",Wisconsin-1171-3,59.957,1.0.0.549,1,-1781922421,2.0.10.356,2.0.10.356,12-20-2022,,20:01:31,2.0.10.252,2,,,,2.0,1.0,1.0,BlockProc2,List3,1,,,,,,,,,,,,,,,,,,,,3.0,1.0,1.0,,,,ShapeProc2,List4,,,,,,,,,10.0,Button1.png,Button2.png,Button3.png,Button4.png,Greenstar3.png,,,,,,,v,0.0,,,,,,,0.0,TrialProc,ShapeList1,,,,3.0,1.0,10.0,1.0,v,0.0,1.0,240971.0,0.0,v,1232.0,Shape
Wisconsin,1171,3,"<?xml version=""1.0""?>\n<Clock xmlns:dt=""urn:schemas-microsoft-com:datatypes""><Description dt:dt=""string"">E-Prime Primary Realtime Clock</Description><StartTime><Timestamp dt:dt=""int"">0</Timestamp><DateUtc dt:dt=""string"">2022-12-20T12:01:31Z</DateUtc></StartTime><FrequencyChanges><FrequencyChange><Frequency dt:dt=""r8"">2929863</Frequency><Timestamp dt:dt=""r8"">15397368275</Timestamp><Current dt:dt=""r8"">0</Current><DateUtc dt:dt=""string"">2022-12-20T12:01:31Z</DateUtc></FrequencyChange></FrequencyChanges></Clock>\n",Wisconsin-1171-3,59.957,1.0.0.549,1,-1781922421,2.0.10.356,2.0.10.356,12-20-2022,,20:01:31,2.0.10.252,2,,,,2.0,1.0,1.0,BlockProc2,List3,2,,,,,,,,,,,,,,,,,,,,2.0,1.0,2.0,,,,NumberProc2,List4,,,,,,,,,1.0,Button1.png,Button2.png,Button3.png,Button4.png,Bluetriangle4.png,,,,,,,x,0.0,,,,3.0,1.0,1.0,0.0,TrialProc,NumberList1,,,,,,,1.0,x,0.0,0.0,244740.0,0.0,x,1463.0,number
Wisconsin,1171,3,"<?xml version=""1.0""?>\n<Clock xmlns:dt=""urn:schemas-microsoft-com:datatypes""><Description dt:dt=""string"">E-Prime Primary Realtime Clock</Description><StartTime><Timestamp dt:dt=""int"">0</Timestamp><DateUtc dt:dt=""string"">2022-12-20T12:01:31Z</DateUtc></StartTime><FrequencyChanges><FrequencyChange><Frequency dt:dt=""r8"">2929863</Frequency><Timestamp dt:dt=""r8"">15397368275</Timestamp><Current dt:dt=""r8"">0</Current><DateUtc dt:dt=""string"">2022-12-20T12:01:31Z</DateUtc></FrequencyChange></FrequencyChanges></Clock>\n",Wisconsin-1171-3,59.957,1.0.0.549,1,-1781922421,2.0.10.356,2.0.10.356,12-20-2022,,20:01:31,2.0.10.252,2,,,,2.0,1.0,1.0,BlockProc2,List3,2,,,,,,,,,,,,,,,,,,,,2.0,1.0,2.0,,,,NumberProc2,List4,,,,,,,,,2.0,Button1.png,Button2.png,Button3.png,Button4.png,Redtriangle2.png,,,,,,,z,1.0,,,,7.0,1.0,2.0,0.0,TrialProc,NumberList1,,,,,,,0.0,z,0.0,0.0,248743.0,0.0,c,2243.0,number
Wisconsin,1171,3,"<?xml version=""1.0""?>\n<Clock xmlns:dt=""urn:schemas-microsoft-com:datatypes""><Description dt:dt=""string"">E-Prime Primary Realtime Clock</Description><StartTime><Timestamp dt:dt=""int"">0</Timestamp><DateUtc dt:dt=""string"">2022-12-20T12:01:31Z</DateUtc></StartTime><FrequencyChanges><FrequencyChange><Frequency dt:dt=""r8"">2929863</Frequency><Timestamp dt:dt=""r8"">15397368275</Timestamp><Current dt:dt=""r8"">0</Current><DateUtc dt:dt=""string"">2022-12-20T12:01:31Z</DateUtc></FrequencyChange></FrequencyChanges></Clock>\n",Wisconsin-1171-3,59.957,1.0.0.549,1,-1781922421,2.0.10.356,2.0.10.356,12-20-2022,,20:01:31,2.0.10.252,2,,,,2.0,1.0,1.0,BlockProc2,List3,2,,,,,,,,,,,,,,,,,,,,2.0,1.0,2.0,,,,NumberProc2,List4,,,,,,,,,3.0,Button1.png,Button2.png,Button3.png,Button4.png,Yellowtriangle2.png,,,,,,,z,1.0,,,,10.0,1.0,3.0,0.0,TrialProc,NumberList1,,,,,,,0.0,z,0.0,0.0,253513.0,0.0,x,849.0,number
Wisconsin,1171,3,"<?xml version=""1.0""?>\n<Clock xmlns:dt=""urn:schemas-microsoft-com:datatypes""><Description dt:dt=""string"">E-Prime Primary Realtime Clock</Description><StartTime><Timestamp dt:dt=""int"">0</Timestamp><DateUtc dt:dt=""string"">2022-12-20T12:01:31Z</DateUtc></StartTime><FrequencyChanges><FrequencyChange><Frequency dt:dt=""r8"">2929863</Frequency><Timestamp dt:dt=""r8"">15397368275</Timestamp><Current dt:dt=""r8"">0</Current><DateUtc dt:dt=""string"">2022-12-20T12:01:31Z</DateUtc></FrequencyChange></FrequencyChanges></Clock>\n",Wisconsin-1171-3,59.957,1.0.0.549,1,-1781922421,2.0.10.356,2.0.10.356,12-20-2022,,20:01:31,2.0.10.252,2,,,,2.0,1.0,1.0,BlockProc2,List3,2,,,,,,,,,,,,,,,,,,,,2.0,1.0,2.0,,,,NumberProc2,List4,,,,,,,,,4.0,Button1.png,Button2.png,Button3.png,Button4.png,Bluestar4.png,,,,,,,x,0.0,,,,2.0,1.0,4.0,0.0,TrialProc,NumberList1,,,,,,,1.0,x,0.0,1.0,256899.0,0.0,x,3271.0,number
Wisconsin,1171,3,"<?xml version=""1.0""?>\n<Clock xmlns:dt=""urn:schemas-microsoft-com:datatypes""><Description dt:dt=""string"">E-Prime Primary Realtime Clock</Description><StartTime><Timestamp dt:dt=""int"">0</Timestamp><DateUtc dt:dt=""string"">2022-12-20T12:01:31Z</DateUtc></StartTime><FrequencyChanges><FrequencyChange><Frequency dt:dt=""r8"">2929863</Frequency><Timestamp dt:dt=""r8"">15397368275</Timestamp><Current dt:dt=""r8"">0</Current><DateUtc dt:dt=""string"">2022-12-20T12:01:31Z</DateUtc></FrequencyChange></FrequencyChanges></Clock>\n",Wisconsin-1171-3,59.957,1.0.0.549,1,-1781922421,2.0.10.356,2.0.10.356,12-20-2022,,20:01:31,2.0.10.252,2,,,,2.0,1.0,1.0,BlockProc2,List3,2,,,,,,,,,,,,,,,,,,,,2.0,1.0,2.0,,,,NumberProc2,List4,,,,,,,,,5.0,Button1.png,Button2.png,Button3.png,Button4.png,Redstar1.png,,,,,,,v,1.0,,,,6.0,1.0,5.0,0.0,TrialProc,NumberList1,,,,,,,0.0,v,0.0,0.0,262703.0,0.0,z,2074.0,number
Wisconsin,1171,3,"<?xml version=""1.0""?>\n<Clock xmlns:dt=""urn:schemas-microsoft-com:datatypes""><Description dt:dt=""string"">E-Prime Primary Realtime Clock</Description><StartTime><Timestamp dt:dt=""int"">0</Timestamp><DateUtc dt:dt=""string"">2022-12-20T12:01:31Z</DateUtc></StartTime><FrequencyChanges><FrequencyChange><Frequency dt:dt=""r8"">2929863</Frequency><Timestamp dt:dt=""r8"">15397368275</Timestamp><Current dt:dt=""r8"">0</Current><DateUtc dt:dt=""string"">2022-12-20T12:01:31Z</DateUtc></FrequencyChange></FrequencyChanges></Clock>\n",Wisconsin-1171-3,59.957,1.0.0.549,1,-1781922421,2.0.10.356,2.0.10.356,12-20-2022,,20:01:31,2.0.10.252,2,,,,2.0,1.0,1.0,BlockProc2,List3,2,,,,,,,,,,,,,,,,,,,,2.0,1.0,2.0,,,,NumberProc2,List4,,,,,,,,,6.0,Button1.png,Button2.png,Button3.png,Button4.png,yellowcircle4.png,,,,,,,x,1.0,,,,8.0,1.0,6.0,0.0,TrialProc,NumberList1,,,,,,,0.0,x,0.0,0.0,267323.0,0.0,z,3422.0,number
Wisconsin,1171,3,"<?xml version=""1.0""?>\n<Clock xmlns:dt=""urn:schemas-microsoft-com:datatypes""><Description dt:dt=""string"">E-Prime Primary Realtime Clock</Description><StartTime><Timestamp dt:dt=""int"">0</Timestamp><DateUtc dt:dt=""string"">2022-12-20T12:01:31Z</DateUtc></StartTime><FrequencyChanges><FrequencyChange><Frequency dt:dt=""r8"">2929863</Frequency><Timestamp dt:dt=""r8"">15397368275</Timestamp><Current dt:dt=""r8"">0</Current><DateUtc dt:dt=""string"">2022-12-20T12:01:31Z</DateUtc></FrequencyChange></FrequencyChanges></Clock>\n",Wisconsin-1171-3,59.957,1.0.0.549,1,-1781922421,2.0.10.356,2.0.10.356,12-20-2022,,20:01:31,2.0.10.252,2,,,,2.0,1.0,1.0,BlockProc2,List3,2,,,,,,,,,,,,,,,,,,,,2.0,1.0,2.0,,,,NumberProc2,List4,,,,,,,,,7.0,Button1.png,Button2.png,Button3.png,Button4.png,Bluecross3.png,,,,,,,c,1.0,,,,1.0,1.0,7.0,0.0,TrialProc,NumberList1,,,,,,,0.0,c,0.0,1.0,273278.0,0.0,x,1643.0,number
Wisconsin,1171,3,"<?xml version=""1.0""?>\n<Clock xmlns:dt=""urn:schemas-microsoft-com:datatypes""><Description dt:dt=""string"">E-Prime Primary Realtime Clock</Description><StartTime><Timestamp dt:dt=""int"">0</Timestamp><DateUtc dt:dt=""string"">2022-12-20T12:01:31Z</DateUtc></StartTime><FrequencyChanges><FrequencyChange><Frequency dt:dt=""r8"">2929863</Frequency><Timestamp dt:dt=""r8"">15397368275</Timestamp><Current dt:dt=""r8"">0</Current><DateUtc dt:dt=""string"">2022-12-20T12:01:31Z</DateUtc></FrequencyChange></FrequencyChanges></Clock>\n",Wisconsin-1171-3,59.957,1.0.0.549,1,-1781922421,2.0.10.356,2.0.10.356,12-20-2022,,20:01:31,2.0.10.252,2,,,,2.0,1.0,1.0,BlockProc2,List3,2,,,,,,,,,,,,,,,,,,,,2.0,1.0,2.0,,,,NumberProc2,List4,,,,,,,,,8.0,Button1.png,Button2.png,Button3.png,Button4.png,Yellowcross2.png,,,,,,,z,1.0,,,,9.0,1.0,8.0,0.0,TrialProc,NumberList1,,,,,,,0.0,z,0.0,1.0,277464.0,0.0,c,1409.0,number
Wisconsin,1171,3,"<?xml version=""1.0""?>\n<Clock xmlns:dt=""urn:schemas-microsoft-com:datatypes""><Description dt:dt=""string"">E-Prime Primary Realtime Clock</Description><StartTime><Timestamp dt:dt=""int"">0</Timestamp><DateUtc dt:dt=""string"">2022-12-20T12:01:31Z</DateUtc></StartTime><FrequencyChanges><FrequencyChange><Frequency dt:dt=""r8"">2929863</Frequency><Timestamp dt:dt=""r8"">15397368275</Timestamp><Current dt:dt=""r8"">0</Current><DateUtc dt:dt=""string"">2022-12-20T12:01:31Z</DateUtc></FrequencyChange></FrequencyChanges></Clock>\n",Wisconsin-1171-3,59.957,1.0.0.549,1,-1781922421,2.0.10.356,2.0.10.356,12-20-2022,,20:01:31,2.0.10.252,2,,,,2.0,1.0,1.0,BlockProc2,List3,2,,,,,,,,,,,,,,,,,,,,2.0,1.0,2.0,,,,NumberProc2,List4,,,,,,,,,9.0,Button1.png,Button2.png,Button3.png,Button4.png,Greencross2.png,,,,,,,z,0.0,,,,4.0,1.0,9.0,0.0,TrialProc,NumberList1,,,,,,,1.0,z,0.0,0.0,281400.0,0.0,z,2496.0,number
Wisconsin,1171,3,"<?xml version=""1.0""?>\n<Clock xmlns:dt=""urn:schemas-microsoft-com:datatypes""><Description dt:dt=""string"">E-Prime Primary Realtime Clock</Description><StartTime><Timestamp dt:dt=""int"">0</Timestamp><DateUtc dt:dt=""string"">2022-12-20T12:01:31Z</DateUtc></StartTime><FrequencyChanges><FrequencyChange><Frequency dt:dt=""r8"">2929863</Frequency><Timestamp dt:dt=""r8"">15397368275</Timestamp><Current dt:dt=""r8"">0</Current><DateUtc dt:dt=""string"">2022-12-20T12:01:31Z</DateUtc></FrequencyChange></FrequencyChanges></Clock>\n",Wisconsin-1171-3,59.957,1.0.0.549,1,-1781922421,2.0.10.356,2.0.10.356,12-20-2022,,20:01:31,2.0.10.252,2,,,,2.0,1.0,1.0,BlockProc2,List3,2,,,,,,,,,,,,,,,,,,,,2.0,1.0,2.0,,,,NumberProc2,List4,,,,,,,,,10.0,Button1.png,Button2.png,Button3.png,Button4.png,Greenstar1.png,,,,,,,v,0.0,,,,5.0,1.0,10.0,0.0,TrialProc,NumberList1,,,,,,,1.0,v,0.0,0.0,286437.0,0.0,v,883.0,number
Wisconsin,1171,3,"<?xml version=""1.0""?>\n<Clock xmlns:dt=""urn:schemas-microsoft-com:datatypes""><Description dt:dt=""string"">E-Prime Primary Realtime Clock</Description><StartTime><Timestamp dt:dt=""int"">0</Timestamp><DateUtc dt:dt=""string"">2022-12-20T12:01:31Z</DateUtc></StartTime><FrequencyChanges><FrequencyChange><Frequency dt:dt=""r8"">2929863</Frequency><Timestamp dt:dt=""r8"">15397368275</Timestamp><Current dt:dt=""r8"">0</Current><DateUtc dt:dt=""string"">2022-12-20T12:01:31Z</DateUtc></FrequencyChange></FrequencyChanges></Clock>\n",Wisconsin-1171-3,59.957,1.0.0.549,1,-1781922421,2.0.10.356,2.0.10.356,12-20-2022,,20:01:31,2.0.10.252,2,,,,2.0,1.0,1.0,BlockProc2,List3,3,,,,,,,,,,,,,,,,,,,,1.0,1.0,3.0,,,,ColorProc2,List4,,,,,,,,,1.0,BUTTON1.png,BUTTON2.PNG,BUTTON3.png,BUTTON4.png,bluecross1.png,,,,1.0,1.0,1.0,v,1.0,,,,,,,0.0,TrialProc,ColorList2,,,,,,,0.0,v,0.0,0.0,289856.0,0.0,c,2552.0,color
Wisconsin,1171,3,"<?xml version=""1.0""?>\n<Clock xmlns:dt=""urn:schemas-microsoft-com:datatypes""><Description dt:dt=""string"">E-Prime Primary Realtime Clock</Description><StartTime><Timestamp dt:dt=""int"">0</Timestamp><DateUtc dt:dt=""string"">2022-12-20T12:01:31Z</DateUtc></StartTime><FrequencyChanges><FrequencyChange><Frequency dt:dt=""r8"">2929863</Frequency><Timestamp dt:dt=""r8"">15397368275</Timestamp><Current dt:dt=""r8"">0</Current><DateUtc dt:dt=""string"">2022-12-20T12:01:31Z</DateUtc></FrequencyChange></FrequencyChanges></Clock>\n",Wisconsin-1171-3,59.957,1.0.0.549,1,-1781922421,2.0.10.356,2.0.10.356,12-20-2022,,20:01:31,2.0.10.252,2,,,,2.0,1.0,1.0,BlockProc2,List3,3,,,,,,,,,,,,,,,,,,,,1.0,1.0,3.0,,,,ColorProc2,List4,,,,,,,,,2.0,BUTTON1.png,BUTTON2.PNG,BUTTON3.png,BUTTON4.png,Greencircle1.png,,,,3.0,1.0,2.0,z,0.0,,,,,,,0.0,TrialProc,ColorList2,,,,,,,1.0,z,0.0,0.0,294943.0,0.0,z,713.0,color
Wisconsin,1171,3,"<?xml version=""1.0""?>\n<Clock xmlns:dt=""urn:schemas-microsoft-com:datatypes""><Description dt:dt=""string"">E-Prime Primary Realtime Clock</Description><StartTime><Timestamp dt:dt=""int"">0</Timestamp><DateUtc dt:dt=""string"">2022-12-20T12:01:31Z</DateUtc></StartTime><FrequencyChanges><FrequencyChange><Frequency dt:dt=""r8"">2929863</Frequency><Timestamp dt:dt=""r8"">15397368275</Timestamp><Current dt:dt=""r8"">0</Current><DateUtc dt:dt=""string"">2022-12-20T12:01:31Z</DateUtc></FrequencyChange></FrequencyChanges></Clock>\n",Wisconsin-1171-3,59.957,1.0.0.549,1,-1781922421,2.0.10.356,2.0.10.356,12-20-2022,,20:01:31,2.0.10.252,2,,,,2.0,1.0,1.0,BlockProc2,List3,3,,,,,,,,,,,,,,,,,,,,1.0,1.0,3.0,,,,ColorProc2,List4,,,,,,,,,3.0,BUTTON1.png,BUTTON2.PNG,BUTTON3.png,BUTTON4.png,yellowcircle2.png,,,,9.0,1.0,3.0,x,0.0,,,,,,,0.0,TrialProc,ColorList2,,,,,,,1.0,x,0.0,1.0,298196.0,0.0,x,2707.0,color
Wisconsin,1171,3,"<?xml version=""1.0""?>\n<Clock xmlns:dt=""urn:schemas-microsoft-com:datatypes""><Description dt:dt=""string"">E-Prime Primary Realtime Clock</Description><StartTime><Timestamp dt:dt=""int"">0</Timestamp><DateUtc dt:dt=""string"">2022-12-20T12:01:31Z</DateUtc></StartTime><FrequencyChanges><FrequencyChange><Frequency dt:dt=""r8"">2929863</Frequency><Timestamp dt:dt=""r8"">15397368275</Timestamp><Current dt:dt=""r8"">0</Current><DateUtc dt:dt=""string"">2022-12-20T12:01:31Z</DateUtc></FrequencyChange></FrequencyChanges></Clock>\n",Wisconsin-1171-3,59.957,1.0.0.549,1,-1781922421,2.0.10.356,2.0.10.356,12-20-2022,,20:01:31,2.0.10.252,2,,,,2.0,1.0,1.0,BlockProc2,List3,3,,,,,,,,,,,,,,,,,,,,1.0,1.0,3.0,,,,ColorProc2,List4,,,,,,,,,4.0,BUTTON1.png,BUTTON2.PNG,BUTTON3.png,BUTTON4.png,Redcircle2.png,,,,7.0,1.0,4.0,c,1.0,,,,,,,0.0,TrialProc,ColorList2,,,,,,,0.0,c,0.0,1.0,303433.0,0.0,z,878.0,color
Wisconsin,1171,3,"<?xml version=""1.0""?>\n<Clock xmlns:dt=""urn:schemas-microsoft-com:datatypes""><Description dt:dt=""string"">E-Prime Primary Realtime Clock</Description><StartTime><Timestamp dt:dt=""int"">0</Timestamp><DateUtc dt:dt=""string"">2022-12-20T12:01:31Z</DateUtc></StartTime><FrequencyChanges><FrequencyChange><Frequency dt:dt=""r8"">2929863</Frequency><Timestamp dt:dt=""r8"">15397368275</Timestamp><Current dt:dt=""r8"">0</Current><DateUtc dt:dt=""string"">2022-12-20T12:01:31Z</DateUtc></FrequencyChange></FrequencyChanges></Clock>\n",Wisconsin-1171-3,59.957,1.0.0.549,1,-1781922421,2.0.10.356,2.0.10.356,12-20-2022,,20:01:31,2.0.10.252,2,,,,2.0,1.0,1.0,BlockProc2,List3,3,,,,,,,,,,,,,,,,,,,,1.0,1.0,3.0,,,,ColorProc2,List4,,,,,,,,,5.0,BUTTON1.png,BUTTON2.PNG,BUTTON3.png,BUTTON4.png,greencross4.png,,,,4.0,1.0,5.0,z,1.0,,,,,,,0.0,TrialProc,ColorList2,,,,,,,0.0,z,0.0,1.0,306852.0,0.0,c,3635.0,color
Wisconsin,1171,3,"<?xml version=""1.0""?>\n<Clock xmlns:dt=""urn:schemas-microsoft-com:datatypes""><Description dt:dt=""string"">E-Prime Primary Realtime Clock</Description><StartTime><Timestamp dt:dt=""int"">0</Timestamp><DateUtc dt:dt=""string"">2022-12-20T12:01:31Z</DateUtc></StartTime><FrequencyChanges><FrequencyChange><Frequency dt:dt=""r8"">2929863</Frequency><Timestamp dt:dt=""r8"">15397368275</Timestamp><Current dt:dt=""r8"">0</Current><DateUtc dt:dt=""string"">2022-12-20T12:01:31Z</DateUtc></FrequencyChange></FrequencyChanges></Clock>\n",Wisconsin-1171-3,59.957,1.0.0.549,1,-1781922421,2.0.10.356,2.0.10.356,12-20-2022,,20:01:31,2.0.10.252,2,,,,2.0,1.0,1.0,BlockProc2,List3,3,,,,,,,,,,,,,,,,,,,,1.0,1.0,3.0,,,,ColorProc2,List4,,,,,,,,,6.0,BUTTON1.png,BUTTON2.PNG,BUTTON3.png,BUTTON4.png,bluestar3.png,,,,2.0,1.0,6.0,v,0.0,,,,,,,0.0,TrialProc,ColorList2,,,,,,,1.0,v,0.0,1.0,313023.0,0.0,v,823.0,color
Wisconsin,1171,3,"<?xml version=""1.0""?>\n<Clock xmlns:dt=""urn:schemas-microsoft-com:datatypes""><Description dt:dt=""string"">E-Prime Primary Realtime Clock</Description><StartTime><Timestamp dt:dt=""int"">0</Timestamp><DateUtc dt:dt=""string"">2022-12-20T12:01:31Z</DateUtc></StartTime><FrequencyChanges><FrequencyChange><Frequency dt:dt=""r8"">2929863</Frequency><Timestamp dt:dt=""r8"">15397368275</Timestamp><Current dt:dt=""r8"">0</Current><DateUtc dt:dt=""string"">2022-12-20T12:01:31Z</DateUtc></FrequencyChange></FrequencyChanges></Clock>\n",Wisconsin-1171-3,59.957,1.0.0.549,1,-1781922421,2.0.10.356,2.0.10.356,12-20-2022,,20:01:31,2.0.10.252,2,,,,2.0,1.0,1.0,BlockProc2,List3,3,,,,,,,,,,,,,,,,,,,,1.0,1.0,3.0,,,,ColorProc2,List4,,,,,,,,,7.0,BUTTON1.png,BUTTON2.PNG,BUTTON3.png,BUTTON4.png,yellowtriangle3.png,,,,10.0,1.0,7.0,x,0.0,,,,,,,0.0,TrialProc,ColorList2,,,,,,,1.0,x,0.0,1.0,316376.0,0.0,x,1374.0,color
Wisconsin,1171,3,"<?xml version=""1.0""?>\n<Clock xmlns:dt=""urn:schemas-microsoft-com:datatypes""><Description dt:dt=""string"">E-Prime Primary Realtime Clock</Description><StartTime><Timestamp dt:dt=""int"">0</Timestamp><DateUtc dt:dt=""string"">2022-12-20T12:01:31Z</DateUtc></StartTime><FrequencyChanges><FrequencyChange><Frequency dt:dt=""r8"">2929863</Frequency><Timestamp dt:dt=""r8"">15397368275</Timestamp><Current dt:dt=""r8"">0</Current><DateUtc dt:dt=""string"">2022-12-20T12:01:31Z</DateUtc></FrequencyChange></FrequencyChanges></Clock>\n",Wisconsin-1171-3,59.957,1.0.0.549,1,-1781922421,2.0.10.356,2.0.10.356,12-20-2022,,20:01:31,2.0.10.252,2,,,,2.0,1.0,1.0,BlockProc2,List3,3,,,,,,,,,,,,,,,,,,,,1.0,1.0,3.0,,,,ColorProc2,List4,,,,,,,,,8.0,BUTTON1.png,BUTTON2.PNG,BUTTON3.png,BUTTON4.png,greenstar4.png,,,,5.0,1.0,8.0,z,1.0,,,,,,,0.0,TrialProc,ColorList2,,,,,,,0.0,z,0.0,0.0,320278.0,0.0,v,1248.0,color
Wisconsin,1171,3,"<?xml version=""1.0""?>\n<Clock xmlns:dt=""urn:schemas-microsoft-com:datatypes""><Description dt:dt=""string"">E-Prime Primary Realtime Clock</Description><StartTime><Timestamp dt:dt=""int"">0</Timestamp><DateUtc dt:dt=""string"">2022-12-20T12:01:31Z</DateUtc></StartTime><FrequencyChanges><FrequencyChange><Frequency dt:dt=""r8"">2929863</Frequency><Timestamp dt:dt=""r8"">15397368275</Timestamp><Current dt:dt=""r8"">0</Current><DateUtc dt:dt=""string"">2022-12-20T12:01:31Z</DateUtc></FrequencyChange></FrequencyChanges></Clock>\n",Wisconsin-1171-3,59.957,1.0.0.549,1,-1781922421,2.0.10.356,2.0.10.356,12-20-2022,,20:01:31,2.0.10.252,2,,,,2.0,1.0,1.0,BlockProc2,List3,3,,,,,,,,,,,,,,,,,,,,1.0,1.0,3.0,,,,ColorProc2,List4,,,,,,,,,9.0,BUTTON1.png,BUTTON2.PNG,BUTTON3.png,BUTTON4.png,greentriangle2.png,,,,6.0,1.0,9.0,z,1.0,,,,,,,0.0,TrialProc,ColorList2,,,,,,,0.0,z,1.0,0.0,324064.0,0.0,x,1014.0,color
Wisconsin,1171,3,"<?xml version=""1.0""?>\n<Clock xmlns:dt=""urn:schemas-microsoft-com:datatypes""><Description dt:dt=""string"">E-Prime Primary Realtime Clock</Description><StartTime><Timestamp dt:dt=""int"">0</Timestamp><DateUtc dt:dt=""string"">2022-12-20T12:01:31Z</DateUtc></StartTime><FrequencyChanges><FrequencyChange><Frequency dt:dt=""r8"">2929863</Frequency><Timestamp dt:dt=""r8"">15397368275</Timestamp><Current dt:dt=""r8"">0</Current><DateUtc dt:dt=""string"">2022-12-20T12:01:31Z</DateUtc></FrequencyChange></FrequencyChanges></Clock>\n",Wisconsin-1171-3,59.957,1.0.0.549,1,-1781922421,2.0.10.356,2.0.10.356,12-20-2022,,20:01:31,2.0.10.252,2,,,,2.0,1.0,1.0,BlockProc2,List3,3,,,,,,,,,,,,,,,,,,,,1.0,1.0,3.0,,,,ColorProc2,List4,,,,,,,,,10.0,BUTTON1.png,BUTTON2.PNG,BUTTON3.png,BUTTON4.png,redstar4.png,,,,8.0,1.0,10.0,c,0.0,,,,,,,0.0,TrialProc,ColorList2,,,,,,,1.0,c,0.0,1.0,327617.0,0.0,c,2069.0,color
Wisconsin,1171,3,"<?xml version=""1.0""?>\n<Clock xmlns:dt=""urn:schemas-microsoft-com:datatypes""><Description dt:dt=""string"">E-Prime Primary Realtime Clock</Description><StartTime><Timestamp dt:dt=""int"">0</Timestamp><DateUtc dt:dt=""string"">2022-12-20T12:01:31Z</DateUtc></StartTime><FrequencyChanges><FrequencyChange><Frequency dt:dt=""r8"">2929863</Frequency><Timestamp dt:dt=""r8"">15397368275</Timestamp><Current dt:dt=""r8"">0</Current><DateUtc dt:dt=""string"">2022-12-20T12:01:31Z</DateUtc></FrequencyChange></FrequencyChanges></Clock>\n",Wisconsin-1171-3,59.957,1.0.0.549,1,-1781922421,2.0.10.356,2.0.10.356,12-20-2022,,20:01:31,2.0.10.252,3,,,,1.0,1.0,2.0,BlockProc,List3,1,,,,,,,,,,,,,,,,,1.0,1.0,1.0,,,,,,,ColorProc,List2,,,,,,,,,1.0,BUTTON1.png,BUTTON2.PNG,BUTTON3.png,BUTTON4.png,redcircle3.png,8.0,1.0,1.0,,,,c,0.0,,,,,,,0.0,TrialProc,ColorList,,,,,,,1.0,c,0.0,0.0,332220.0,0.0,c,1513.0,color
Wisconsin,1171,3,"<?xml version=""1.0""?>\n<Clock xmlns:dt=""urn:schemas-microsoft-com:datatypes""><Description dt:dt=""string"">E-Prime Primary Realtime Clock</Description><StartTime><Timestamp dt:dt=""int"">0</Timestamp><DateUtc dt:dt=""string"">2022-12-20T12:01:31Z</DateUtc></StartTime><FrequencyChanges><FrequencyChange><Frequency dt:dt=""r8"">2929863</Frequency><Timestamp dt:dt=""r8"">15397368275</Timestamp><Current dt:dt=""r8"">0</Current><DateUtc dt:dt=""string"">2022-12-20T12:01:31Z</DateUtc></FrequencyChange></FrequencyChanges></Clock>\n",Wisconsin-1171-3,59.957,1.0.0.549,1,-1781922421,2.0.10.356,2.0.10.356,12-20-2022,,20:01:31,2.0.10.252,3,,,,1.0,1.0,2.0,BlockProc,List3,1,,,,,,,,,,,,,,,,,1.0,1.0,1.0,,,,,,,ColorProc,List2,,,,,,,,,2.0,BUTTON1.png,BUTTON2.PNG,BUTTON3.png,BUTTON4.png,yellowstar3.png,10.0,1.0,2.0,,,,x,0.0,,,,,,,0.0,TrialProc,ColorList,,,,,,,1.0,x,0.0,0.0,336273.0,0.0,x,1764.0,color
Wisconsin,1171,3,"<?xml version=""1.0""?>\n<Clock xmlns:dt=""urn:schemas-microsoft-com:datatypes""><Description dt:dt=""string"">E-Prime Primary Realtime Clock</Description><StartTime><Timestamp dt:dt=""int"">0</Timestamp><DateUtc dt:dt=""string"">2022-12-20T12:01:31Z</DateUtc></StartTime><FrequencyChanges><FrequencyChange><Frequency dt:dt=""r8"">2929863</Frequency><Timestamp dt:dt=""r8"">15397368275</Timestamp><Current dt:dt=""r8"">0</Current><DateUtc dt:dt=""string"">2022-12-20T12:01:31Z</DateUtc></FrequencyChange></FrequencyChanges></Clock>\n",Wisconsin-1171-3,59.957,1.0.0.549,1,-1781922421,2.0.10.356,2.0.10.356,12-20-2022,,20:01:31,2.0.10.252,3,,,,1.0,1.0,2.0,BlockProc,List3,1,,,,,,,,,,,,,,,,,1.0,1.0,1.0,,,,,,,ColorProc,List2,,,,,,,,,3.0,BUTTON1.png,BUTTON2.PNG,BUTTON3.png,BUTTON4.png,bluecross2.png,2.0,1.0,3.0,,,,v,1.0,,,,,,,0.0,TrialProc,ColorList,,,,,,,0.0,v,0.0,0.0,340576.0,0.0,c,1317.0,color
Wisconsin,1171,3,"<?xml version=""1.0""?>\n<Clock xmlns:dt=""urn:schemas-microsoft-com:datatypes""><Description dt:dt=""string"">E-Prime Primary Realtime Clock</Description><StartTime><Timestamp dt:dt=""int"">0</Timestamp><DateUtc dt:dt=""string"">2022-12-20T12:01:31Z</DateUtc></StartTime><FrequencyChanges><FrequencyChange><Frequency dt:dt=""r8"">2929863</Frequency><Timestamp dt:dt=""r8"">15397368275</Timestamp><Current dt:dt=""r8"">0</Current><DateUtc dt:dt=""string"">2022-12-20T12:01:31Z</DateUtc></FrequencyChange></FrequencyChanges></Clock>\n",Wisconsin-1171-3,59.957,1.0.0.549,1,-1781922421,2.0.10.356,2.0.10.356,12-20-2022,,20:01:31,2.0.10.252,3,,,,1.0,1.0,2.0,BlockProc,List3,1,,,,,,,,,,,,,,,,,1.0,1.0,1.0,,,,,,,ColorProc,List2,,,,,,,,,4.0,BUTTON1.png,BUTTON2.PNG,BUTTON3.png,BUTTON4.png,bluetriangle3.png,3.0,1.0,4.0,,,,v,1.0,,,,,,,0.0,TrialProc,ColorList,,,,,,,0.0,v,0.0,1.0,344429.0,0.0,x,1944.0,color
Wisconsin,1171,3,"<?xml version=""1.0""?>\n<Clock xmlns:dt=""urn:schemas-microsoft-com:datatypes""><Description dt:dt=""string"">E-Prime Primary Realtime Clock</Description><StartTime><Timestamp dt:dt=""int"">0</Timestamp><DateUtc dt:dt=""string"">2022-12-20T12:01:31Z</DateUtc></StartTime><FrequencyChanges><FrequencyChange><Frequency dt:dt=""r8"">2929863</Frequency><Timestamp dt:dt=""r8"">15397368275</Timestamp><Current dt:dt=""r8"">0</Current><DateUtc dt:dt=""string"">2022-12-20T12:01:31Z</DateUtc></FrequencyChange></FrequencyChanges></Clock>\n",Wisconsin-1171-3,59.957,1.0.0.549,1,-1781922421,2.0.10.356,2.0.10.356,12-20-2022,,20:01:31,2.0.10.252,3,,,,1.0,1.0,2.0,BlockProc,List3,1,,,,,,,,,,,,,,,,,1.0,1.0,1.0,,,,,,,ColorProc,List2,,,,,,,,,5.0,BUTTON1.png,BUTTON2.PNG,BUTTON3.png,BUTTON4.png,bluecircle1.png,1.0,1.0,5.0,,,,v,1.0,,,,,,,0.0,TrialProc,ColorList,,,,,,,0.0,v,0.0,1.0,348916.0,0.0,z,896.0,color
Wisconsin,1171,3,"<?xml version=""1.0""?>\n<Clock xmlns:dt=""urn:schemas-microsoft-com:datatypes""><Description dt:dt=""string"">E-Prime Primary Realtime Clock</Description><StartTime><Timestamp dt:dt=""int"">0</Timestamp><DateUtc dt:dt=""string"">2022-12-20T12:01:31Z</DateUtc></StartTime><FrequencyChanges><FrequencyChange><Frequency dt:dt=""r8"">2929863</Frequency><Timestamp dt:dt=""r8"">15397368275</Timestamp><Current dt:dt=""r8"">0</Current><DateUtc dt:dt=""string"">2022-12-20T12:01:31Z</DateUtc></FrequencyChange></FrequencyChanges></Clock>\n",Wisconsin-1171-3,59.957,1.0.0.549,1,-1781922421,2.0.10.356,2.0.10.356,12-20-2022,,20:01:31,2.0.10.252,3,,,,1.0,1.0,2.0,BlockProc,List3,1,,,,,,,,,,,,,,,,,1.0,1.0,1.0,,,,,,,ColorProc,List2,,,,,,,,,6.0,BUTTON1.png,BUTTON2.PNG,BUTTON3.png,BUTTON4.png,greentriangle1.png,6.0,1.0,6.0,,,,z,0.0,,,,,,,0.0,TrialProc,ColorList,,,,,,,1.0,z,0.0,1.0,352352.0,0.0,z,2004.0,color
Wisconsin,1171,3,"<?xml version=""1.0""?>\n<Clock xmlns:dt=""urn:schemas-microsoft-com:datatypes""><Description dt:dt=""string"">E-Prime Primary Realtime Clock</Description><StartTime><Timestamp dt:dt=""int"">0</Timestamp><DateUtc dt:dt=""string"">2022-12-20T12:01:31Z</DateUtc></StartTime><FrequencyChanges><FrequencyChange><Frequency dt:dt=""r8"">2929863</Frequency><Timestamp dt:dt=""r8"">15397368275</Timestamp><Current dt:dt=""r8"">0</Current><DateUtc dt:dt=""string"">2022-12-20T12:01:31Z</DateUtc></FrequencyChange></FrequencyChanges></Clock>\n",Wisconsin-1171-3,59.957,1.0.0.549,1,-1781922421,2.0.10.356,2.0.10.356,12-20-2022,,20:01:31,2.0.10.252,3,,,,1.0,1.0,2.0,BlockProc,List3,1,,,,,,,,,,,,,,,,,1.0,1.0,1.0,,,,,,,ColorProc,List2,,,,,,,,,7.0,BUTTON1.png,BUTTON2.PNG,BUTTON3.png,BUTTON4.png,yellowcircle1.png,9.0,1.0,7.0,,,,x,1.0,,,,,,,0.0,TrialProc,ColorList,,,,,,,0.0,x,0.0,1.0,356888.0,0.0,z,1036.0,color
Wisconsin,1171,3,"<?xml version=""1.0""?>\n<Clock xmlns:dt=""urn:schemas-microsoft-com:datatypes""><Description dt:dt=""string"">E-Prime Primary Realtime Clock</Description><StartTime><Timestamp dt:dt=""int"">0</Timestamp><DateUtc dt:dt=""string"">2022-12-20T12:01:31Z</DateUtc></StartTime><FrequencyChanges><FrequencyChange><Frequency dt:dt=""r8"">2929863</Frequency><Timestamp dt:dt=""r8"">15397368275</Timestamp><Current dt:dt=""r8"">0</Current><DateUtc dt:dt=""string"">2022-12-20T12:01:31Z</DateUtc></FrequencyChange></FrequencyChanges></Clock>\n",Wisconsin-1171-3,59.957,1.0.0.549,1,-1781922421,2.0.10.356,2.0.10.356,12-20-2022,,20:01:31,2.0.10.252,3,,,,1.0,1.0,2.0,BlockProc,List3,1,,,,,,,,,,,,,,,,,1.0,1.0,1.0,,,,,,,ColorProc,List2,,,,,,,,,8.0,BUTTON1.png,BUTTON2.PNG,BUTTON3.png,BUTTON4.png,greencircle3.png,4.0,1.0,8.0,,,,z,0.0,,,,,,,0.0,TrialProc,ColorList,,,,,,,1.0,z,1.0,0.0,360457.0,0.0,z,795.0,color
Wisconsin,1171,3,"<?xml version=""1.0""?>\n<Clock xmlns:dt=""urn:schemas-microsoft-com:datatypes""><Description dt:dt=""string"">E-Prime Primary Realtime Clock</Description><StartTime><Timestamp dt:dt=""int"">0</Timestamp><DateUtc dt:dt=""string"">2022-12-20T12:01:31Z</DateUtc></StartTime><FrequencyChanges><FrequencyChange><Frequency dt:dt=""r8"">2929863</Frequency><Timestamp dt:dt=""r8"">15397368275</Timestamp><Current dt:dt=""r8"">0</Current><DateUtc dt:dt=""string"">2022-12-20T12:01:31Z</DateUtc></FrequencyChange></FrequencyChanges></Clock>\n",Wisconsin-1171-3,59.957,1.0.0.549,1,-1781922421,2.0.10.356,2.0.10.356,12-20-2022,,20:01:31,2.0.10.252,3,,,,1.0,1.0,2.0,BlockProc,List3,1,,,,,,,,,,,,,,,,,1.0,1.0,1.0,,,,,,,ColorProc,List2,,,,,,,,,9.0,BUTTON1.png,BUTTON2.PNG,BUTTON3.png,BUTTON4.png,greenstar2.png,5.0,1.0,9.0,,,,z,1.0,,,,,,,0.0,TrialProc,ColorList,,,,,,,0.0,z,0.0,1.0,363793.0,0.0,v,2098.0,color
Wisconsin,1171,3,"<?xml version=""1.0""?>\n<Clock xmlns:dt=""urn:schemas-microsoft-com:datatypes""><Description dt:dt=""string"">E-Prime Primary Realtime Clock</Description><StartTime><Timestamp dt:dt=""int"">0</Timestamp><DateUtc dt:dt=""string"">2022-12-20T12:01:31Z</DateUtc></StartTime><FrequencyChanges><FrequencyChange><Frequency dt:dt=""r8"">2929863</Frequency><Timestamp dt:dt=""r8"">15397368275</Timestamp><Current dt:dt=""r8"">0</Current><DateUtc dt:dt=""string"">2022-12-20T12:01:31Z</DateUtc></FrequencyChange></FrequencyChanges></Clock>\n",Wisconsin-1171-3,59.957,1.0.0.549,1,-1781922421,2.0.10.356,2.0.10.356,12-20-2022,,20:01:31,2.0.10.252,3,,,,1.0,1.0,2.0,BlockProc,List3,1,,,,,,,,,,,,,,,,,1.0,1.0,1.0,,,,,,,ColorProc,List2,,,,,,,,,10.0,BUTTON1.png,BUTTON2.PNG,BUTTON3.png,BUTTON4.png,greentriangle3.png,7.0,1.0,10.0,,,,z,1.0,,,,,,,0.0,TrialProc,ColorList,,,,,,,0.0,z,0.0,1.0,368430.0,0.0,x,1669.0,color
Wisconsin,1171,3,"<?xml version=""1.0""?>\n<Clock xmlns:dt=""urn:schemas-microsoft-com:datatypes""><Description dt:dt=""string"">E-Prime Primary Realtime Clock</Description><StartTime><Timestamp dt:dt=""int"">0</Timestamp><DateUtc dt:dt=""string"">2022-12-20T12:01:31Z</DateUtc></StartTime><FrequencyChanges><FrequencyChange><Frequency dt:dt=""r8"">2929863</Frequency><Timestamp dt:dt=""r8"">15397368275</Timestamp><Current dt:dt=""r8"">0</Current><DateUtc dt:dt=""string"">2022-12-20T12:01:31Z</DateUtc></FrequencyChange></FrequencyChanges></Clock>\n",Wisconsin-1171-3,59.957,1.0.0.549,1,-1781922421,2.0.10.356,2.0.10.356,12-20-2022,,20:01:31,2.0.10.252,3,,,,1.0,1.0,2.0,BlockProc,List3,2,,,,,,,,,,,,,,,,,2.0,1.0,2.0,,,,,,,NumberProc,List2,,,,,,,,,1.0,Button1.png,Button2.png,Button3.png,Button4.png,Bluetriangle1.png,,,,,,,v,0.0,3.0,1.0,1.0,,,,0.0,TrialProc,NumberList,,,,,,,1.0,v,0.0,1.0,372633.0,0.0,v,2202.0,number
Wisconsin,1171,3,"<?xml version=""1.0""?>\n<Clock xmlns:dt=""urn:schemas-microsoft-com:datatypes""><Description dt:dt=""string"">E-Prime Primary Realtime Clock</Description><StartTime><Timestamp dt:dt=""int"">0</Timestamp><DateUtc dt:dt=""string"">2022-12-20T12:01:31Z</DateUtc></StartTime><FrequencyChanges><FrequencyChange><Frequency dt:dt=""r8"">2929863</Frequency><Timestamp dt:dt=""r8"">15397368275</Timestamp><Current dt:dt=""r8"">0</Current><DateUtc dt:dt=""string"">2022-12-20T12:01:31Z</DateUtc></FrequencyChange></FrequencyChanges></Clock>\n",Wisconsin-1171-3,59.957,1.0.0.549,1,-1781922421,2.0.10.356,2.0.10.356,12-20-2022,,20:01:31,2.0.10.252,3,,,,1.0,1.0,2.0,BlockProc,List3,2,,,,,,,,,,,,,,,,,2.0,1.0,2.0,,,,,,,NumberProc,List2,,,,,,,,,2.0,Button1.png,Button2.png,Button3.png,Button4.png,Redcircle4.png,,,,,,,x,1.0,6.0,1.0,2.0,,,,0.0,TrialProc,NumberList,,,,,,,0.0,x,0.0,1.0,377370.0,0.0,c,2841.0,number
Wisconsin,1171,3,"<?xml version=""1.0""?>\n<Clock xmlns:dt=""urn:schemas-microsoft-com:datatypes""><Description dt:dt=""string"">E-Prime Primary Realtime Clock</Description><StartTime><Timestamp dt:dt=""int"">0</Timestamp><DateUtc dt:dt=""string"">2022-12-20T12:01:31Z</DateUtc></StartTime><FrequencyChanges><FrequencyChange><Frequency dt:dt=""r8"">2929863</Frequency><Timestamp dt:dt=""r8"">15397368275</Timestamp><Current dt:dt=""r8"">0</Current><DateUtc dt:dt=""string"">2022-12-20T12:01:31Z</DateUtc></FrequencyChange></FrequencyChanges></Clock>\n",Wisconsin-1171-3,59.957,1.0.0.549,1,-1781922421,2.0.10.356,2.0.10.356,12-20-2022,,20:01:31,2.0.10.252,3,,,,1.0,1.0,2.0,BlockProc,List3,2,,,,,,,,,,,,,,,,,2.0,1.0,2.0,,,,,,,NumberProc,List2,,,,,,,,,3.0,Button1.png,Button2.png,Button3.png,Button4.png,Greencircle4.png,,,,,,,x,1.0,4.0,1.0,3.0,,,,0.0,TrialProc,NumberList,,,,,,,0.0,x,0.0,1.0,382740.0,0.0,z,718.0,number
Wisconsin,1171,3,"<?xml version=""1.0""?>\n<Clock xmlns:dt=""urn:schemas-microsoft-com:datatypes""><Description dt:dt=""string"">E-Prime Primary Realtime Clock</Description><StartTime><Timestamp dt:dt=""int"">0</Timestamp><DateUtc dt:dt=""string"">2022-12-20T12:01:31Z</DateUtc></StartTime><FrequencyChanges><FrequencyChange><Frequency dt:dt=""r8"">2929863</Frequency><Timestamp dt:dt=""r8"">15397368275</Timestamp><Current dt:dt=""r8"">0</Current><DateUtc dt:dt=""string"">2022-12-20T12:01:31Z</DateUtc></FrequencyChange></FrequencyChanges></Clock>\n",Wisconsin-1171-3,59.957,1.0.0.549,1,-1781922421,2.0.10.356,2.0.10.356,12-20-2022,,20:01:31,2.0.10.252,3,,,,1.0,1.0,2.0,BlockProc,List3,2,,,,,,,,,,,,,,,,,2.0,1.0,2.0,,,,,,,NumberProc,List2,,,,,,,,,4.0,Button1.png,Button2.png,Button3.png,Button4.png,Redtriangle4.png,,,,,,,x,0.0,8.0,1.0,4.0,,,,0.0,TrialProc,NumberList,,,,,,,1.0,x,0.0,1.0,385993.0,0.0,x,1561.0,number
Wisconsin,1171,3,"<?xml version=""1.0""?>\n<Clock xmlns:dt=""urn:schemas-microsoft-com:datatypes""><Description dt:dt=""string"">E-Prime Primary Realtime Clock</Description><StartTime><Timestamp dt:dt=""int"">0</Timestamp><DateUtc dt:dt=""string"">2022-12-20T12:01:31Z</DateUtc></StartTime><FrequencyChanges><FrequencyChange><Frequency dt:dt=""r8"">2929863</Frequency><Timestamp dt:dt=""r8"">15397368275</Timestamp><Current dt:dt=""r8"">0</Current><DateUtc dt:dt=""string"">2022-12-20T12:01:31Z</DateUtc></FrequencyChange></FrequencyChanges></Clock>\n",Wisconsin-1171-3,59.957,1.0.0.549,1,-1781922421,2.0.10.356,2.0.10.356,12-20-2022,,20:01:31,2.0.10.252,3,,,,1.0,1.0,2.0,BlockProc,List3,2,,,,,,,,,,,,,,,,,2.0,1.0,2.0,,,,,,,NumberProc,List2,,,,,,,,,5.0,Button1.png,Button2.png,Button3.png,Button4.png,Yellowcross1.png,,,,,,,v,0.0,9.0,1.0,5.0,,,,0.0,TrialProc,NumberList,,,,,,,1.0,v,0.0,1.0,390096.0,0.0,v,1826.0,number
Wisconsin,1171,3,"<?xml version=""1.0""?>\n<Clock xmlns:dt=""urn:schemas-microsoft-com:datatypes""><Description dt:dt=""string"">E-Prime Primary Realtime Clock</Description><StartTime><Timestamp dt:dt=""int"">0</Timestamp><DateUtc dt:dt=""string"">2022-12-20T12:01:31Z</DateUtc></StartTime><FrequencyChanges><FrequencyChange><Frequency dt:dt=""r8"">2929863</Frequency><Timestamp dt:dt=""r8"">15397368275</Timestamp><Current dt:dt=""r8"">0</Current><DateUtc dt:dt=""string"">2022-12-20T12:01:31Z</DateUtc></FrequencyChange></FrequencyChanges></Clock>\n",Wisconsin-1171-3,59.957,1.0.0.549,1,-1781922421,2.0.10.356,2.0.10.356,12-20-2022,,20:01:31,2.0.10.252,3,,,,1.0,1.0,2.0,BlockProc,List3,2,,,,,,,,,,,,,,,,,2.0,1.0,2.0,,,,,,,NumberProc,List2,,,,,,,,,6.0,Button1.png,Button2.png,Button3.png,Button4.png,Greencross3.png,,,,,,,c,0.0,5.0,1.0,6.0,,,,0.0,TrialProc,NumberList,,,,,,,1.0,c,0.0,0.0,394465.0,0.0,c,1505.0,number
Wisconsin,1171,3,"<?xml version=""1.0""?>\n<Clock xmlns:dt=""urn:schemas-microsoft-com:datatypes""><Description dt:dt=""string"">E-Prime Primary Realtime Clock</Description><StartTime><Timestamp dt:dt=""int"">0</Timestamp><DateUtc dt:dt=""string"">2022-12-20T12:01:31Z</DateUtc></StartTime><FrequencyChanges><FrequencyChange><Frequency dt:dt=""r8"">2929863</Frequency><Timestamp dt:dt=""r8"">15397368275</Timestamp><Current dt:dt=""r8"">0</Current><DateUtc dt:dt=""string"">2022-12-20T12:01:31Z</DateUtc></FrequencyChange></FrequencyChanges></Clock>\n",Wisconsin-1171-3,59.957,1.0.0.549,1,-1781922421,2.0.10.356,2.0.10.356,12-20-2022,,20:01:31,2.0.10.252,3,,,,1.0,1.0,2.0,BlockProc,List3,2,,,,,,,,,,,,,,,,,2.0,1.0,2.0,,,,,,,NumberProc,List2,,,,,,,,,7.0,Button1.png,Button2.png,Button3.png,Button4.png,Bluestar2.png,,,,,,,z,1.0,2.0,1.0,7.0,,,,0.0,TrialProc,NumberList,,,,,,,0.0,z,0.0,1.0,398502.0,0.0,v,747.0,number
Wisconsin,1171,3,"<?xml version=""1.0""?>\n<Clock xmlns:dt=""urn:schemas-microsoft-com:datatypes""><Description dt:dt=""string"">E-Prime Primary Realtime Clock</Description><StartTime><Timestamp dt:dt=""int"">0</Timestamp><DateUtc dt:dt=""string"">2022-12-20T12:01:31Z</DateUtc></StartTime><FrequencyChanges><FrequencyChange><Frequency dt:dt=""r8"">2929863</Frequency><Timestamp dt:dt=""r8"">15397368275</Timestamp><Current dt:dt=""r8"">0</Current><DateUtc dt:dt=""string"">2022-12-20T12:01:31Z</DateUtc></FrequencyChange></FrequencyChanges></Clock>\n",Wisconsin-1171-3,59.957,1.0.0.549,1,-1781922421,2.0.10.356,2.0.10.356,12-20-2022,,20:01:31,2.0.10.252,3,,,,1.0,1.0,2.0,BlockProc,List3,2,,,,,,,,,,,,,,,,,2.0,1.0,2.0,,,,,,,NumberProc,List2,,,,,,,,,8.0,Button1.png,Button2.png,Button3.png,Button4.png,Bluecircle4.png,,,,,,,x,1.0,1.0,1.0,8.0,,,,0.0,TrialProc,NumberList,,,,,,,0.0,x,0.0,0.0,401787.0,0.0,c,1286.0,number
Wisconsin,1171,3,"<?xml version=""1.0""?>\n<Clock xmlns:dt=""urn:schemas-microsoft-com:datatypes""><Description dt:dt=""string"">E-Prime Primary Realtime Clock</Description><StartTime><Timestamp dt:dt=""int"">0</Timestamp><DateUtc dt:dt=""string"">2022-12-20T12:01:31Z</DateUtc></StartTime><FrequencyChanges><FrequencyChange><Frequency dt:dt=""r8"">2929863</Frequency><Timestamp dt:dt=""r8"">15397368275</Timestamp><Current dt:dt=""r8"">0</Current><DateUtc dt:dt=""string"">2022-12-20T12:01:31Z</DateUtc></FrequencyChange></FrequencyChanges></Clock>\n",Wisconsin-1171-3,59.957,1.0.0.549,1,-1781922421,2.0.10.356,2.0.10.356,12-20-2022,,20:01:31,2.0.10.252,3,,,,1.0,1.0,2.0,BlockProc,List3,2,,,,,,,,,,,,,,,,,2.0,1.0,2.0,,,,,,,NumberProc,List2,,,,,,,,,9.0,Button1.png,Button2.png,Button3.png,Button4.png,Redstar2.png,,,,,,,z,1.0,7.0,1.0,9.0,,,,0.0,TrialProc,NumberList,,,,,,,0.0,z,0.0,1.0,405607.0,0.0,c,2010.0,number
Wisconsin,1171,3,"<?xml version=""1.0""?>\n<Clock xmlns:dt=""urn:schemas-microsoft-com:datatypes""><Description dt:dt=""string"">E-Prime Primary Realtime Clock</Description><StartTime><Timestamp dt:dt=""int"">0</Timestamp><DateUtc dt:dt=""string"">2022-12-20T12:01:31Z</DateUtc></StartTime><FrequencyChanges><FrequencyChange><Frequency dt:dt=""r8"">2929863</Frequency><Timestamp dt:dt=""r8"">15397368275</Timestamp><Current dt:dt=""r8"">0</Current><DateUtc dt:dt=""string"">2022-12-20T12:01:31Z</DateUtc></FrequencyChange></FrequencyChanges></Clock>\n",Wisconsin-1171-3,59.957,1.0.0.549,1,-1781922421,2.0.10.356,2.0.10.356,12-20-2022,,20:01:31,2.0.10.252,3,,,,1.0,1.0,2.0,BlockProc,List3,2,,,,,,,,,,,,,,,,,2.0,1.0,2.0,,,,,,,NumberProc,List2,,,,,,,,,10.0,Button1.png,Button2.png,Button3.png,Button4.png,Yellowcross3.png,,,,,,,c,1.0,10.0,1.0,10.0,,,,0.0,TrialProc,NumberList,,,,,,,0.0,c,0.0,1.0,410160.0,0.0,x,1281.0,number
Wisconsin,1171,3,"<?xml version=""1.0""?>\n<Clock xmlns:dt=""urn:schemas-microsoft-com:datatypes""><Description dt:dt=""string"">E-Prime Primary Realtime Clock</Description><StartTime><Timestamp dt:dt=""int"">0</Timestamp><DateUtc dt:dt=""string"">2022-12-20T12:01:31Z</DateUtc></StartTime><FrequencyChanges><FrequencyChange><Frequency dt:dt=""r8"">2929863</Frequency><Timestamp dt:dt=""r8"">15397368275</Timestamp><Current dt:dt=""r8"">0</Current><DateUtc dt:dt=""string"">2022-12-20T12:01:31Z</DateUtc></FrequencyChange></FrequencyChanges></Clock>\n",Wisconsin-1171-3,59.957,1.0.0.549,1,-1781922421,2.0.10.356,2.0.10.356,12-20-2022,,20:01:31,2.0.10.252,3,,,,1.0,1.0,2.0,BlockProc,List3,3,,,,,,,,,,,,,,,,,3.0,1.0,3.0,,,,,,,ShapeProc,List2,,,,,,,,,1.0,Button1.png,Button2.png,Button3.png,Button4.png,Redcross4.png,,,,,,,c,0.0,,,,,,,0.0,TrialProc,ShapeList,6.0,1.0,1.0,,,,1.0,c,1.0,0.0,413979.0,0.0,c,997.0,Shape
Wisconsin,1171,3,"<?xml version=""1.0""?>\n<Clock xmlns:dt=""urn:schemas-microsoft-com:datatypes""><Description dt:dt=""string"">E-Prime Primary Realtime Clock</Description><StartTime><Timestamp dt:dt=""int"">0</Timestamp><DateUtc dt:dt=""string"">2022-12-20T12:01:31Z</DateUtc></StartTime><FrequencyChanges><FrequencyChange><Frequency dt:dt=""r8"">2929863</Frequency><Timestamp dt:dt=""r8"">15397368275</Timestamp><Current dt:dt=""r8"">0</Current><DateUtc dt:dt=""string"">2022-12-20T12:01:31Z</DateUtc></FrequencyChange></FrequencyChanges></Clock>\n",Wisconsin-1171-3,59.957,1.0.0.549,1,-1781922421,2.0.10.356,2.0.10.356,12-20-2022,,20:01:31,2.0.10.252,3,,,,1.0,1.0,2.0,BlockProc,List3,3,,,,,,,,,,,,,,,,,3.0,1.0,3.0,,,,,,,ShapeProc,List2,,,,,,,,,2.0,Button1.png,Button2.png,Button3.png,Button4.png,Greencross1.png,,,,,,,c,1.0,,,,,,,0.0,TrialProc,ShapeList,3.0,1.0,2.0,,,,0.0,c,0.0,0.0,417515.0,0.0,z,1957.0,Shape
Wisconsin,1171,3,"<?xml version=""1.0""?>\n<Clock xmlns:dt=""urn:schemas-microsoft-com:datatypes""><Description dt:dt=""string"">E-Prime Primary Realtime Clock</Description><StartTime><Timestamp dt:dt=""int"">0</Timestamp><DateUtc dt:dt=""string"">2022-12-20T12:01:31Z</DateUtc></StartTime><FrequencyChanges><FrequencyChange><Frequency dt:dt=""r8"">2929863</Frequency><Timestamp dt:dt=""r8"">15397368275</Timestamp><Current dt:dt=""r8"">0</Current><DateUtc dt:dt=""string"">2022-12-20T12:01:31Z</DateUtc></FrequencyChange></FrequencyChanges></Clock>\n",Wisconsin-1171-3,59.957,1.0.0.549,1,-1781922421,2.0.10.356,2.0.10.356,12-20-2022,,20:01:31,2.0.10.252,3,,,,1.0,1.0,2.0,BlockProc,List3,3,,,,,,,,,,,,,,,,,3.0,1.0,3.0,,,,,,,ShapeProc,List2,,,,,,,,,3.0,Button1.png,Button2.png,Button3.png,Button4.png,Bluecross4.png,,,,,,,c,1.0,,,,,,,0.0,TrialProc,ShapeList,2.0,1.0,3.0,,,,0.0,c,0.0,1.0,422002.0,0.0,v,1166.0,Shape
Wisconsin,1171,3,"<?xml version=""1.0""?>\n<Clock xmlns:dt=""urn:schemas-microsoft-com:datatypes""><Description dt:dt=""string"">E-Prime Primary Realtime Clock</Description><StartTime><Timestamp dt:dt=""int"">0</Timestamp><DateUtc dt:dt=""string"">2022-12-20T12:01:31Z</DateUtc></StartTime><FrequencyChanges><FrequencyChange><Frequency dt:dt=""r8"">2929863</Frequency><Timestamp dt:dt=""r8"">15397368275</Timestamp><Current dt:dt=""r8"">0</Current><DateUtc dt:dt=""string"">2022-12-20T12:01:31Z</DateUtc></FrequencyChange></FrequencyChanges></Clock>\n",Wisconsin-1171-3,59.957,1.0.0.549,1,-1781922421,2.0.10.356,2.0.10.356,12-20-2022,,20:01:31,2.0.10.252,3,,,,1.0,1.0,2.0,BlockProc,List3,3,,,,,,,,,,,,,,,,,3.0,1.0,3.0,,,,,,,ShapeProc,List2,,,,,,,,,4.0,Button1.png,Button2.png,Button3.png,Button4.png,Greentriangle4.png,,,,,,,x,1.0,,,,,,,0.0,TrialProc,ShapeList,4.0,1.0,4.0,,,,0.0,x,0.0,1.0,425705.0,0.0,c,1911.0,Shape
Wisconsin,1171,3,"<?xml version=""1.0""?>\n<Clock xmlns:dt=""urn:schemas-microsoft-com:datatypes""><Description dt:dt=""string"">E-Prime Primary Realtime Clock</Description><StartTime><Timestamp dt:dt=""int"">0</Timestamp><DateUtc dt:dt=""string"">2022-12-20T12:01:31Z</DateUtc></StartTime><FrequencyChanges><FrequencyChange><Frequency dt:dt=""r8"">2929863</Frequency><Timestamp dt:dt=""r8"">15397368275</Timestamp><Current dt:dt=""r8"">0</Current><DateUtc dt:dt=""string"">2022-12-20T12:01:31Z</DateUtc></FrequencyChange></FrequencyChanges></Clock>\n",Wisconsin-1171-3,59.957,1.0.0.549,1,-1781922421,2.0.10.356,2.0.10.356,12-20-2022,,20:01:31,2.0.10.252,3,,,,1.0,1.0,2.0,BlockProc,List3,3,,,,,,,,,,,,,,,,,3.0,1.0,3.0,,,,,,,ShapeProc,List2,,,,,,,,,5.0,Button1.png,Button2.png,Button3.png,Button4.png,yellowcircle3.png,,,,,,,z,0.0,,,,,,,0.0,TrialProc,ShapeList,8.0,1.0,5.0,,,,1.0,z,0.0,1.0,430158.0,0.0,z,1089.0,Shape
Wisconsin,1171,3,"<?xml version=""1.0""?>\n<Clock xmlns:dt=""urn:schemas-microsoft-com:datatypes""><Description dt:dt=""string"">E-Prime Primary Realtime Clock</Description><StartTime><Timestamp dt:dt=""int"">0</Timestamp><DateUtc dt:dt=""string"">2022-12-20T12:01:31Z</DateUtc></StartTime><FrequencyChanges><FrequencyChange><Frequency dt:dt=""r8"">2929863</Frequency><Timestamp dt:dt=""r8"">15397368275</Timestamp><Current dt:dt=""r8"">0</Current><DateUtc dt:dt=""string"">2022-12-20T12:01:31Z</DateUtc></FrequencyChange></FrequencyChanges></Clock>\n",Wisconsin-1171-3,59.957,1.0.0.549,1,-1781922421,2.0.10.356,2.0.10.356,12-20-2022,,20:01:31,2.0.10.252,3,,,,1.0,1.0,2.0,BlockProc,List3,3,,,,,,,,,,,,,,,,,3.0,1.0,3.0,,,,,,,ShapeProc,List2,,,,,,,,,6.0,Button1.png,Button2.png,Button3.png,Button4.png,Bluecircle2.png,,,,,,,z,1.0,,,,,,,0.0,TrialProc,ShapeList,1.0,1.0,6.0,,,,0.0,z,0.0,1.0,433777.0,0.0,v,2174.0,Shape
Wisconsin,1171,3,"<?xml version=""1.0""?>\n<Clock xmlns:dt=""urn:schemas-microsoft-com:datatypes""><Description dt:dt=""string"">E-Prime Primary Realtime Clock</Description><StartTime><Timestamp dt:dt=""int"">0</Timestamp><DateUtc dt:dt=""string"">2022-12-20T12:01:31Z</DateUtc></StartTime><FrequencyChanges><FrequencyChange><Frequency dt:dt=""r8"">2929863</Frequency><Timestamp dt:dt=""r8"">15397368275</Timestamp><Current dt:dt=""r8"">0</Current><DateUtc dt:dt=""string"">2022-12-20T12:01:31Z</DateUtc></FrequencyChange></FrequencyChanges></Clock>\n",Wisconsin-1171-3,59.957,1.0.0.549,1,-1781922421,2.0.10.356,2.0.10.356,12-20-2022,,20:01:31,2.0.10.252,3,,,,1.0,1.0,2.0,BlockProc,List3,3,,,,,,,,,,,,,,,,,3.0,1.0,3.0,,,,,,,ShapeProc,List2,,,,,,,,,7.0,Button1.png,Button2.png,Button3.png,Button4.png,Redtriangle1.png,,,,,,,x,1.0,,,,,,,0.0,TrialProc,ShapeList,7.0,1.0,7.0,,,,0.0,x,0.0,0.0,438497.0,0.0,c,3502.0,Shape
Wisconsin,1171,3,"<?xml version=""1.0""?>\n<Clock xmlns:dt=""urn:schemas-microsoft-com:datatypes""><Description dt:dt=""string"">E-Prime Primary Realtime Clock</Description><StartTime><Timestamp dt:dt=""int"">0</Timestamp><DateUtc dt:dt=""string"">2022-12-20T12:01:31Z</DateUtc></StartTime><FrequencyChanges><FrequencyChange><Frequency dt:dt=""r8"">2929863</Frequency><Timestamp dt:dt=""r8"">15397368275</Timestamp><Current dt:dt=""r8"">0</Current><DateUtc dt:dt=""string"">2022-12-20T12:01:31Z</DateUtc></FrequencyChange></FrequencyChanges></Clock>\n",Wisconsin-1171-3,59.957,1.0.0.549,1,-1781922421,2.0.10.356,2.0.10.356,12-20-2022,,20:01:31,2.0.10.252,3,,,,1.0,1.0,2.0,BlockProc,List3,3,,,,,,,,,,,,,,,,,3.0,1.0,3.0,,,,,,,ShapeProc,List2,,,,,,,,,8.0,Button1.png,Button2.png,Button3.png,Button4.png,Yellowstar4.png,,,,,,,v,0.0,,,,,,,0.0,TrialProc,ShapeList,10.0,1.0,8.0,,,,1.0,v,0.0,1.0,444535.0,0.0,v,1576.0,Shape
Wisconsin,1171,3,"<?xml version=""1.0""?>\n<Clock xmlns:dt=""urn:schemas-microsoft-com:datatypes""><Description dt:dt=""string"">E-Prime Primary Realtime Clock</Description><StartTime><Timestamp dt:dt=""int"">0</Timestamp><DateUtc dt:dt=""string"">2022-12-20T12:01:31Z</DateUtc></StartTime><FrequencyChanges><FrequencyChange><Frequency dt:dt=""r8"">2929863</Frequency><Timestamp dt:dt=""r8"">15397368275</Timestamp><Current dt:dt=""r8"">0</Current><DateUtc dt:dt=""string"">2022-12-20T12:01:31Z</DateUtc></FrequencyChange></FrequencyChanges></Clock>\n",Wisconsin-1171-3,59.957,1.0.0.549,1,-1781922421,2.0.10.356,2.0.10.356,12-20-2022,,20:01:31,2.0.10.252,3,,,,1.0,1.0,2.0,BlockProc,List3,3,,,,,,,,,,,,,,,,,3.0,1.0,3.0,,,,,,,ShapeProc,List2,,,,,,,,,9.0,Button1.png,Button2.png,Button3.png,Button4.png,Redcross1.png,,,,,,,c,0.0,,,,,,,0.0,TrialProc,ShapeList,5.0,1.0,9.0,,,,1.0,c,0.0,1.0,448655.0,0.0,c,1183.0,Shape
Wisconsin,1171,3,"<?xml version=""1.0""?>\n<Clock xmlns:dt=""urn:schemas-microsoft-com:datatypes""><Description dt:dt=""string"">E-Prime Primary Realtime Clock</Description><StartTime><Timestamp dt:dt=""int"">0</Timestamp><DateUtc dt:dt=""string"">2022-12-20T12:01:31Z</DateUtc></StartTime><FrequencyChanges><FrequencyChange><Frequency dt:dt=""r8"">2929863</Frequency><Timestamp dt:dt=""r8"">15397368275</Timestamp><Current dt:dt=""r8"">0</Current><DateUtc dt:dt=""string"">2022-12-20T12:01:31Z</DateUtc></FrequencyChange></FrequencyChanges></Clock>\n",Wisconsin-1171-3,59.957,1.0.0.549,1,-1781922421,2.0.10.356,2.0.10.356,12-20-2022,,20:01:31,2.0.10.252,3,,,,1.0,1.0,2.0,BlockProc,List3,3,,,,,,,,,,,,,,,,,3.0,1.0,3.0,,,,,,,ShapeProc,List2,,,,,,,,,10.0,Button1.png,Button2.png,Button3.png,Button4.png,Yellowstar1.png,,,,,,,v,0.0,,,,,,,0.0,TrialProc,ShapeList,9.0,1.0,10.0,,,,1.0,v,0.0,1.0,452374.0,0.0,v,920.0,Shape
