ExperimentName,Subject,Session,Clock.Information,DataFile.Basename,Display.RefreshRate,ExperimentVersion,Group,RandomSeed,RuntimeVersion,RuntimeVersionExpected,SessionDate,SessionStartDateTimeUtc,SessionTime,StudioVersion,Block,List1,List1.Cycle,List1.Sample,List3,List3.Cycle,List3.Sample,Procedure[Block],Running[Block],Trial,CardIMG1[Trial],CardIMG2[Trial],CardIMG3[Trial],CardIMG4[Trial],CardStim[Trial],Category,CorrectAnswer[Trial],FeedbackDisplay2.ACC,FeedbackDisplay2.CRESP,FeedbackDisplay2.DurationError,FeedbackDisplay2.OnsetDelay,FeedbackDisplay2.OnsetTime,FeedbackDisplay2.OnsetToOnsetTime,FeedbackDisplay2.RESP,FeedbackDisplay2.RT,FeedbackDisplay2.RTTime,List2,List2.Cycle,List2.Sample,List4,List4.Cycle,List4.Sample,PracticeList,PracticeList.Cycle,PracticeList.Sample,Procedure[Trial],Running[Trial],Slide5.ACC,Slide5.CRESP,Slide5.DurationError,Slide5.OnsetDelay,Slide5.OnsetTime,Slide5.OnsetToOnsetTime,Slide5.RESP,Slide5.RT,SubTrial,CardIMG1[SubTrial],CardIMG2[SubTrial],CardIMG3[SubTrial],CardIMG4[SubTrial],CardStim[SubTrial],ColorList,ColorList.Cycle,ColorList.Sample,ColorList2,ColorList2.Cycle,ColorList2.Sample,CorrectAnswer[SubTrial],NonPerseverativeError,NumberList,NumberList.Cycle,NumberList.Sample,NumberList1,NumberList1.Cycle,NumberList1.Sample,PerseverativeError,Procedure[SubTrial],Running[SubTrial],ShapeList,ShapeList.Cycle,ShapeList.Sample,ShapeList1,ShapeList1.Cycle,ShapeList1.Sample,Stimulus.ACC,Stimulus.CRESP,Stimulus.DurationError,Stimulus.OnsetDelay,Stimulus.OnsetTime,Stimulus.OnsetToOnsetTime,Stimulus.RESP,Stimulus.RT,TrialType
Wisconsin,1170,3,"<?xml version=""1.0""?>\n<Clock xmlns:dt=""urn:schemas-microsoft-com:datatypes""><Description dt:dt=""string"">E-Prime Primary Realtime Clock</Description><StartTime><Timestamp dt:dt=""int"">0</Timestamp><DateUtc dt:dt=""string"">2022-12-23T07:27:09Z</DateUtc></StartTime><FrequencyChanges><FrequencyChange><Frequency dt:dt=""r8"">2929882</Frequency><Timestamp dt:dt=""r8"">5666755557</Timestamp><Current dt:dt=""r8"">0</Current><DateUtc dt:dt=""string"">2022-12-23T07:27:09Z</DateUtc></FrequencyChange></FrequencyChanges></Clock>\n",Wisconsin-1170-3,59.957,1.0.0.551,1,1372352226,2.0.10.356,2.0.10.356,12-23-2022,12/23/2022 7:27:09 AM,15:27:09,2.0.10.252,1,1.0,1.0,1.0,,,,Practicebloc,List1,1,Button1.png,Button2.png,Button3.png,Button4.png,Greencircle3.png,顏色,z,0.0,,0.0,20.0,66152.0,0.0,,0.0,0.0,,,,,,,1.0,1.0,1.0,PracticeTrialProc,PracticeList,1.0,z,0.0,1.0,64401.0,0.0,z,1729.0,,,,,,,,,,,,,,,,,,,,,,,,,,,,,,,,,,,,,,
Wisconsin,1170,3,"<?xml version=""1.0""?>\n<Clock xmlns:dt=""urn:schemas-microsoft-com:datatypes""><Description dt:dt=""string"">E-Prime Primary Realtime Clock</Description><StartTime><Timestamp dt:dt=""int"">0</Timestamp><DateUtc dt:dt=""string"">2022-12-23T07:27:09Z</DateUtc></StartTime><FrequencyChanges><FrequencyChange><Frequency dt:dt=""r8"">2929882</Frequency><Timestamp dt:dt=""r8"">5666755557</Timestamp><Current dt:dt=""r8"">0</Current><DateUtc dt:dt=""string"">2022-12-23T07:27:09Z</DateUtc></FrequencyChange></FrequencyChanges></Clock>\n",Wisconsin-1170-3,59.957,1.0.0.551,1,1372352226,2.0.10.356,2.0.10.356,12-23-2022,12/23/2022 7:27:09 AM,15:27:09,2.0.10.252,1,1.0,1.0,1.0,,,,Practicebloc,List1,2,Button1.png,Button2.png,Button3.png,Button4.png,Redstar2.png,顏色,c,0.0,,0.0,25.0,70189.0,0.0,,0.0,0.0,,,,,,,2.0,1.0,2.0,PracticeTrialProc,PracticeList,1.0,c,0.0,0.0,68704.0,0.0,c,1457.0,,,,,,,,,,,,,,,,,,,,,,,,,,,,,,,,,,,,,,
Wisconsin,1170,3,"<?xml version=""1.0""?>\n<Clock xmlns:dt=""urn:schemas-microsoft-com:datatypes""><Description dt:dt=""string"">E-Prime Primary Realtime Clock</Description><StartTime><Timestamp dt:dt=""int"">0</Timestamp><DateUtc dt:dt=""string"">2022-12-23T07:27:09Z</DateUtc></StartTime><FrequencyChanges><FrequencyChange><Frequency dt:dt=""r8"">2929882</Frequency><Timestamp dt:dt=""r8"">5666755557</Timestamp><Current dt:dt=""r8"">0</Current><DateUtc dt:dt=""string"">2022-12-23T07:27:09Z</DateUtc></FrequencyChange></FrequencyChanges></Clock>\n",Wisconsin-1170-3,59.957,1.0.0.551,1,1372352226,2.0.10.356,2.0.10.356,12-23-2022,12/23/2022 7:27:09 AM,15:27:09,2.0.10.252,1,1.0,1.0,1.0,,,,Practicebloc,List1,3,Button1.png,Button2.png,Button3.png,Button4.png,Bluetriangle1.png,形狀,x,0.0,,0.0,26.0,73725.0,0.0,,0.0,0.0,,,,,,,3.0,1.0,3.0,PracticeTrialProc,PracticeList,0.0,x,0.0,1.0,72741.0,0.0,v,956.0,,,,,,,,,,,,,,,,,,,,,,,,,,,,,,,,,,,,,,
Wisconsin,1170,3,"<?xml version=""1.0""?>\n<Clock xmlns:dt=""urn:schemas-microsoft-com:datatypes""><Description dt:dt=""string"">E-Prime Primary Realtime Clock</Description><StartTime><Timestamp dt:dt=""int"">0</Timestamp><DateUtc dt:dt=""string"">2022-12-23T07:27:09Z</DateUtc></StartTime><FrequencyChanges><FrequencyChange><Frequency dt:dt=""r8"">2929882</Frequency><Timestamp dt:dt=""r8"">5666755557</Timestamp><Current dt:dt=""r8"">0</Current><DateUtc dt:dt=""string"">2022-12-23T07:27:09Z</DateUtc></FrequencyChange></FrequencyChanges></Clock>\n",Wisconsin-1170-3,59.957,1.0.0.551,1,1372352226,2.0.10.356,2.0.10.356,12-23-2022,12/23/2022 7:27:09 AM,15:27:09,2.0.10.252,1,1.0,1.0,1.0,,,,Practicebloc,List1,4,Button1.png,Button2.png,Button3.png,Button4.png,greenstar2.png,形狀,v,0.0,,0.0,26.0,77277.0,0.0,,0.0,0.0,,,,,,,4.0,1.0,4.0,PracticeTrialProc,PracticeList,1.0,v,1.0,0.0,76276.0,0.0,v,973.0,,,,,,,,,,,,,,,,,,,,,,,,,,,,,,,,,,,,,,
Wisconsin,1170,3,"<?xml version=""1.0""?>\n<Clock xmlns:dt=""urn:schemas-microsoft-com:datatypes""><Description dt:dt=""string"">E-Prime Primary Realtime Clock</Description><StartTime><Timestamp dt:dt=""int"">0</Timestamp><DateUtc dt:dt=""string"">2022-12-23T07:27:09Z</DateUtc></StartTime><FrequencyChanges><FrequencyChange><Frequency dt:dt=""r8"">2929882</Frequency><Timestamp dt:dt=""r8"">5666755557</Timestamp><Current dt:dt=""r8"">0</Current><DateUtc dt:dt=""string"">2022-12-23T07:27:09Z</DateUtc></FrequencyChange></FrequencyChanges></Clock>\n",Wisconsin-1170-3,59.957,1.0.0.551,1,1372352226,2.0.10.356,2.0.10.356,12-23-2022,12/23/2022 7:27:09 AM,15:27:09,2.0.10.252,1,1.0,1.0,1.0,,,,Practicebloc,List1,5,Button1.png,Button2.png,Button3.png,Button4.png,BlueCross4.png,數目,x,0.0,,0.0,26.0,80863.0,0.0,,0.0,0.0,,,,,,,5.0,1.0,5.0,PracticeTrialProc,PracticeList,0.0,x,0.0,1.0,79829.0,0.0,c,1004.0,,,,,,,,,,,,,,,,,,,,,,,,,,,,,,,,,,,,,,
Wisconsin,1170,3,"<?xml version=""1.0""?>\n<Clock xmlns:dt=""urn:schemas-microsoft-com:datatypes""><Description dt:dt=""string"">E-Prime Primary Realtime Clock</Description><StartTime><Timestamp dt:dt=""int"">0</Timestamp><DateUtc dt:dt=""string"">2022-12-23T07:27:09Z</DateUtc></StartTime><FrequencyChanges><FrequencyChange><Frequency dt:dt=""r8"">2929882</Frequency><Timestamp dt:dt=""r8"">5666755557</Timestamp><Current dt:dt=""r8"">0</Current><DateUtc dt:dt=""string"">2022-12-23T07:27:09Z</DateUtc></FrequencyChange></FrequencyChanges></Clock>\n",Wisconsin-1170-3,59.957,1.0.0.551,1,1372352226,2.0.10.356,2.0.10.356,12-23-2022,12/23/2022 7:27:09 AM,15:27:09,2.0.10.252,1,1.0,1.0,1.0,,,,Practicebloc,List1,6,Button1.png,Button2.png,Button3.png,Button4.png,yellowcircle2.png,數目,z,0.0,,0.0,15.0,84816.0,0.0,,0.0,0.0,,,,,,,6.0,1.0,6.0,PracticeTrialProc,PracticeList,1.0,z,0.0,1.0,83415.0,0.0,z,1385.0,,,,,,,,,,,,,,,,,,,,,,,,,,,,,,,,,,,,,,
Wisconsin,1170,3,"<?xml version=""1.0""?>\n<Clock xmlns:dt=""urn:schemas-microsoft-com:datatypes""><Description dt:dt=""string"">E-Prime Primary Realtime Clock</Description><StartTime><Timestamp dt:dt=""int"">0</Timestamp><DateUtc dt:dt=""string"">2022-12-23T07:27:09Z</DateUtc></StartTime><FrequencyChanges><FrequencyChange><Frequency dt:dt=""r8"">2929882</Frequency><Timestamp dt:dt=""r8"">5666755557</Timestamp><Current dt:dt=""r8"">0</Current><DateUtc dt:dt=""string"">2022-12-23T07:27:09Z</DateUtc></FrequencyChange></FrequencyChanges></Clock>\n",Wisconsin-1170-3,59.957,1.0.0.551,1,1372352226,2.0.10.356,2.0.10.356,12-23-2022,12/23/2022 7:27:09 AM,15:27:09,2.0.10.252,2,,,,1.0,1.0,1.0,BlockProc,List3,1,,,,,,,,,,,,,,,,,3.0,1.0,1.0,,,,,,,ShapeProc,List2,,,,,,,,,1.0,Button1.png,Button2.png,Button3.png,Button4.png,Bluecircle2.png,,,,,,,z,0.0,,,,,,,0.0,TrialProc,ShapeList,1.0,1.0,1.0,,,,1.0,z,1.0,0.0,280439.0,0.0,z,1548.0,Shape
Wisconsin,1170,3,"<?xml version=""1.0""?>\n<Clock xmlns:dt=""urn:schemas-microsoft-com:datatypes""><Description dt:dt=""string"">E-Prime Primary Realtime Clock</Description><StartTime><Timestamp dt:dt=""int"">0</Timestamp><DateUtc dt:dt=""string"">2022-12-23T07:27:09Z</DateUtc></StartTime><FrequencyChanges><FrequencyChange><Frequency dt:dt=""r8"">2929882</Frequency><Timestamp dt:dt=""r8"">5666755557</Timestamp><Current dt:dt=""r8"">0</Current><DateUtc dt:dt=""string"">2022-12-23T07:27:09Z</DateUtc></FrequencyChange></FrequencyChanges></Clock>\n",Wisconsin-1170-3,59.957,1.0.0.551,1,1372352226,2.0.10.356,2.0.10.356,12-23-2022,12/23/2022 7:27:09 AM,15:27:09,2.0.10.252,2,,,,1.0,1.0,1.0,BlockProc,List3,1,,,,,,,,,,,,,,,,,3.0,1.0,1.0,,,,,,,ShapeProc,List2,,,,,,,,,2.0,Button1.png,Button2.png,Button3.png,Button4.png,Redtriangle1.png,,,,,,,x,1.0,,,,,,,0.0,TrialProc,ShapeList,7.0,1.0,2.0,,,,0.0,x,0.0,1.0,284526.0,0.0,v,741.0,Shape
Wisconsin,1170,3,"<?xml version=""1.0""?>\n<Clock xmlns:dt=""urn:schemas-microsoft-com:datatypes""><Description dt:dt=""string"">E-Prime Primary Realtime Clock</Description><StartTime><Timestamp dt:dt=""int"">0</Timestamp><DateUtc dt:dt=""string"">2022-12-23T07:27:09Z</DateUtc></StartTime><FrequencyChanges><FrequencyChange><Frequency dt:dt=""r8"">2929882</Frequency><Timestamp dt:dt=""r8"">5666755557</Timestamp><Current dt:dt=""r8"">0</Current><DateUtc dt:dt=""string"">2022-12-23T07:27:09Z</DateUtc></FrequencyChange></FrequencyChanges></Clock>\n",Wisconsin-1170-3,59.957,1.0.0.551,1,1372352226,2.0.10.356,2.0.10.356,12-23-2022,12/23/2022 7:27:09 AM,15:27:09,2.0.10.252,2,,,,1.0,1.0,1.0,BlockProc,List3,1,,,,,,,,,,,,,,,,,3.0,1.0,1.0,,,,,,,ShapeProc,List2,,,,,,,,,3.0,Button1.png,Button2.png,Button3.png,Button4.png,Bluecross4.png,,,,,,,c,0.0,,,,,,,0.0,TrialProc,ShapeList,2.0,1.0,3.0,,,,1.0,c,0.0,0.0,287811.0,0.0,c,896.0,Shape
Wisconsin,1170,3,"<?xml version=""1.0""?>\n<Clock xmlns:dt=""urn:schemas-microsoft-com:datatypes""><Description dt:dt=""string"">E-Prime Primary Realtime Clock</Description><StartTime><Timestamp dt:dt=""int"">0</Timestamp><DateUtc dt:dt=""string"">2022-12-23T07:27:09Z</DateUtc></StartTime><FrequencyChanges><FrequencyChange><Frequency dt:dt=""r8"">2929882</Frequency><Timestamp dt:dt=""r8"">5666755557</Timestamp><Current dt:dt=""r8"">0</Current><DateUtc dt:dt=""string"">2022-12-23T07:27:09Z</DateUtc></FrequencyChange></FrequencyChanges></Clock>\n",Wisconsin-1170-3,59.957,1.0.0.551,1,1372352226,2.0.10.356,2.0.10.356,12-23-2022,12/23/2022 7:27:09 AM,15:27:09,2.0.10.252,2,,,,1.0,1.0,1.0,BlockProc,List3,1,,,,,,,,,,,,,,,,,3.0,1.0,1.0,,,,,,,ShapeProc,List2,,,,,,,,,4.0,Button1.png,Button2.png,Button3.png,Button4.png,Redcross1.png,,,,,,,c,0.0,,,,,,,0.0,TrialProc,ShapeList,5.0,1.0,4.0,,,,1.0,c,0.0,1.0,291247.0,0.0,c,788.0,Shape
Wisconsin,1170,3,"<?xml version=""1.0""?>\n<Clock xmlns:dt=""urn:schemas-microsoft-com:datatypes""><Description dt:dt=""string"">E-Prime Primary Realtime Clock</Description><StartTime><Timestamp dt:dt=""int"">0</Timestamp><DateUtc dt:dt=""string"">2022-12-23T07:27:09Z</DateUtc></StartTime><FrequencyChanges><FrequencyChange><Frequency dt:dt=""r8"">2929882</Frequency><Timestamp dt:dt=""r8"">5666755557</Timestamp><Current dt:dt=""r8"">0</Current><DateUtc dt:dt=""string"">2022-12-23T07:27:09Z</DateUtc></FrequencyChange></FrequencyChanges></Clock>\n",Wisconsin-1170-3,59.957,1.0.0.551,1,1372352226,2.0.10.356,2.0.10.356,12-23-2022,12/23/2022 7:27:09 AM,15:27:09,2.0.10.252,2,,,,1.0,1.0,1.0,BlockProc,List3,1,,,,,,,,,,,,,,,,,3.0,1.0,1.0,,,,,,,ShapeProc,List2,,,,,,,,,5.0,Button1.png,Button2.png,Button3.png,Button4.png,Greentriangle4.png,,,,,,,x,0.0,,,,,,,0.0,TrialProc,ShapeList,4.0,1.0,5.0,,,,1.0,x,0.0,0.0,294566.0,0.0,x,1468.0,Shape
Wisconsin,1170,3,"<?xml version=""1.0""?>\n<Clock xmlns:dt=""urn:schemas-microsoft-com:datatypes""><Description dt:dt=""string"">E-Prime Primary Realtime Clock</Description><StartTime><Timestamp dt:dt=""int"">0</Timestamp><DateUtc dt:dt=""string"">2022-12-23T07:27:09Z</DateUtc></StartTime><FrequencyChanges><FrequencyChange><Frequency dt:dt=""r8"">2929882</Frequency><Timestamp dt:dt=""r8"">5666755557</Timestamp><Current dt:dt=""r8"">0</Current><DateUtc dt:dt=""string"">2022-12-23T07:27:09Z</DateUtc></FrequencyChange></FrequencyChanges></Clock>\n",Wisconsin-1170-3,59.957,1.0.0.551,1,1372352226,2.0.10.356,2.0.10.356,12-23-2022,12/23/2022 7:27:09 AM,15:27:09,2.0.10.252,2,,,,1.0,1.0,1.0,BlockProc,List3,1,,,,,,,,,,,,,,,,,3.0,1.0,1.0,,,,,,,ShapeProc,List2,,,,,,,,,6.0,Button1.png,Button2.png,Button3.png,Button4.png,Yellowstar1.png,,,,,,,v,0.0,,,,,,,0.0,TrialProc,ShapeList,9.0,1.0,6.0,,,,1.0,v,0.0,1.0,298569.0,0.0,v,1209.0,Shape
Wisconsin,1170,3,"<?xml version=""1.0""?>\n<Clock xmlns:dt=""urn:schemas-microsoft-com:datatypes""><Description dt:dt=""string"">E-Prime Primary Realtime Clock</Description><StartTime><Timestamp dt:dt=""int"">0</Timestamp><DateUtc dt:dt=""string"">2022-12-23T07:27:09Z</DateUtc></StartTime><FrequencyChanges><FrequencyChange><Frequency dt:dt=""r8"">2929882</Frequency><Timestamp dt:dt=""r8"">5666755557</Timestamp><Current dt:dt=""r8"">0</Current><DateUtc dt:dt=""string"">2022-12-23T07:27:09Z</DateUtc></FrequencyChange></FrequencyChanges></Clock>\n",Wisconsin-1170-3,59.957,1.0.0.551,1,1372352226,2.0.10.356,2.0.10.356,12-23-2022,12/23/2022 7:27:09 AM,15:27:09,2.0.10.252,2,,,,1.0,1.0,1.0,BlockProc,List3,1,,,,,,,,,,,,,,,,,3.0,1.0,1.0,,,,,,,ShapeProc,List2,,,,,,,,,7.0,Button1.png,Button2.png,Button3.png,Button4.png,Greencross1.png,,,,,,,c,0.0,,,,,,,0.0,TrialProc,ShapeList,3.0,1.0,7.0,,,,1.0,c,0.0,1.0,302322.0,0.0,c,1360.0,Shape
Wisconsin,1170,3,"<?xml version=""1.0""?>\n<Clock xmlns:dt=""urn:schemas-microsoft-com:datatypes""><Description dt:dt=""string"">E-Prime Primary Realtime Clock</Description><StartTime><Timestamp dt:dt=""int"">0</Timestamp><DateUtc dt:dt=""string"">2022-12-23T07:27:09Z</DateUtc></StartTime><FrequencyChanges><FrequencyChange><Frequency dt:dt=""r8"">2929882</Frequency><Timestamp dt:dt=""r8"">5666755557</Timestamp><Current dt:dt=""r8"">0</Current><DateUtc dt:dt=""string"">2022-12-23T07:27:09Z</DateUtc></FrequencyChange></FrequencyChanges></Clock>\n",Wisconsin-1170-3,59.957,1.0.0.551,1,1372352226,2.0.10.356,2.0.10.356,12-23-2022,12/23/2022 7:27:09 AM,15:27:09,2.0.10.252,2,,,,1.0,1.0,1.0,BlockProc,List3,1,,,,,,,,,,,,,,,,,3.0,1.0,1.0,,,,,,,ShapeProc,List2,,,,,,,,,8.0,Button1.png,Button2.png,Button3.png,Button4.png,Yellowstar4.png,,,,,,,v,0.0,,,,,,,0.0,TrialProc,ShapeList,10.0,1.0,8.0,,,,1.0,v,0.0,1.0,306225.0,0.0,v,1953.0,Shape
Wisconsin,1170,3,"<?xml version=""1.0""?>\n<Clock xmlns:dt=""urn:schemas-microsoft-com:datatypes""><Description dt:dt=""string"">E-Prime Primary Realtime Clock</Description><StartTime><Timestamp dt:dt=""int"">0</Timestamp><DateUtc dt:dt=""string"">2022-12-23T07:27:09Z</DateUtc></StartTime><FrequencyChanges><FrequencyChange><Frequency dt:dt=""r8"">2929882</Frequency><Timestamp dt:dt=""r8"">5666755557</Timestamp><Current dt:dt=""r8"">0</Current><DateUtc dt:dt=""string"">2022-12-23T07:27:09Z</DateUtc></FrequencyChange></FrequencyChanges></Clock>\n",Wisconsin-1170-3,59.957,1.0.0.551,1,1372352226,2.0.10.356,2.0.10.356,12-23-2022,12/23/2022 7:27:09 AM,15:27:09,2.0.10.252,2,,,,1.0,1.0,1.0,BlockProc,List3,1,,,,,,,,,,,,,,,,,3.0,1.0,1.0,,,,,,,ShapeProc,List2,,,,,,,,,9.0,Button1.png,Button2.png,Button3.png,Button4.png,Redcross4.png,,,,,,,c,0.0,,,,,,,0.0,TrialProc,ShapeList,6.0,1.0,9.0,,,,1.0,c,0.0,1.0,310711.0,0.0,c,986.0,Shape
Wisconsin,1170,3,"<?xml version=""1.0""?>\n<Clock xmlns:dt=""urn:schemas-microsoft-com:datatypes""><Description dt:dt=""string"">E-Prime Primary Realtime Clock</Description><StartTime><Timestamp dt:dt=""int"">0</Timestamp><DateUtc dt:dt=""string"">2022-12-23T07:27:09Z</DateUtc></StartTime><FrequencyChanges><FrequencyChange><Frequency dt:dt=""r8"">2929882</Frequency><Timestamp dt:dt=""r8"">5666755557</Timestamp><Current dt:dt=""r8"">0</Current><DateUtc dt:dt=""string"">2022-12-23T07:27:09Z</DateUtc></FrequencyChange></FrequencyChanges></Clock>\n",Wisconsin-1170-3,59.957,1.0.0.551,1,1372352226,2.0.10.356,2.0.10.356,12-23-2022,12/23/2022 7:27:09 AM,15:27:09,2.0.10.252,2,,,,1.0,1.0,1.0,BlockProc,List3,1,,,,,,,,,,,,,,,,,3.0,1.0,1.0,,,,,,,ShapeProc,List2,,,,,,,,,10.0,Button1.png,Button2.png,Button3.png,Button4.png,yellowcircle3.png,,,,,,,z,0.0,,,,,,,0.0,TrialProc,ShapeList,8.0,1.0,10.0,,,,1.0,z,0.0,0.0,314230.0,0.0,z,1275.0,Shape
Wisconsin,1170,3,"<?xml version=""1.0""?>\n<Clock xmlns:dt=""urn:schemas-microsoft-com:datatypes""><Description dt:dt=""string"">E-Prime Primary Realtime Clock</Description><StartTime><Timestamp dt:dt=""int"">0</Timestamp><DateUtc dt:dt=""string"">2022-12-23T07:27:09Z</DateUtc></StartTime><FrequencyChanges><FrequencyChange><Frequency dt:dt=""r8"">2929882</Frequency><Timestamp dt:dt=""r8"">5666755557</Timestamp><Current dt:dt=""r8"">0</Current><DateUtc dt:dt=""string"">2022-12-23T07:27:09Z</DateUtc></FrequencyChange></FrequencyChanges></Clock>\n",Wisconsin-1170-3,59.957,1.0.0.551,1,1372352226,2.0.10.356,2.0.10.356,12-23-2022,12/23/2022 7:27:09 AM,15:27:09,2.0.10.252,2,,,,1.0,1.0,1.0,BlockProc,List3,2,,,,,,,,,,,,,,,,,1.0,1.0,2.0,,,,,,,ColorProc,List2,,,,,,,,,1.0,BUTTON1.png,BUTTON2.PNG,BUTTON3.png,BUTTON4.png,yellowcircle1.png,9.0,1.0,1.0,,,,x,1.0,,,,,,,0.0,TrialProc,ColorList,,,,,,,0.0,x,0.0,1.0,318050.0,0.0,z,1023.0,color
Wisconsin,1170,3,"<?xml version=""1.0""?>\n<Clock xmlns:dt=""urn:schemas-microsoft-com:datatypes""><Description dt:dt=""string"">E-Prime Primary Realtime Clock</Description><StartTime><Timestamp dt:dt=""int"">0</Timestamp><DateUtc dt:dt=""string"">2022-12-23T07:27:09Z</DateUtc></StartTime><FrequencyChanges><FrequencyChange><Frequency dt:dt=""r8"">2929882</Frequency><Timestamp dt:dt=""r8"">5666755557</Timestamp><Current dt:dt=""r8"">0</Current><DateUtc dt:dt=""string"">2022-12-23T07:27:09Z</DateUtc></FrequencyChange></FrequencyChanges></Clock>\n",Wisconsin-1170-3,59.957,1.0.0.551,1,1372352226,2.0.10.356,2.0.10.356,12-23-2022,12/23/2022 7:27:09 AM,15:27:09,2.0.10.252,2,,,,1.0,1.0,1.0,BlockProc,List3,2,,,,,,,,,,,,,,,,,1.0,1.0,2.0,,,,,,,ColorProc,List2,,,,,,,,,2.0,BUTTON1.png,BUTTON2.PNG,BUTTON3.png,BUTTON4.png,greenstar2.png,5.0,1.0,2.0,,,,z,0.0,,,,,,,0.0,TrialProc,ColorList,,,,,,,1.0,z,0.0,0.0,321602.0,0.0,z,3247.0,color
Wisconsin,1170,3,"<?xml version=""1.0""?>\n<Clock xmlns:dt=""urn:schemas-microsoft-com:datatypes""><Description dt:dt=""string"">E-Prime Primary Realtime Clock</Description><StartTime><Timestamp dt:dt=""int"">0</Timestamp><DateUtc dt:dt=""string"">2022-12-23T07:27:09Z</DateUtc></StartTime><FrequencyChanges><FrequencyChange><Frequency dt:dt=""r8"">2929882</Frequency><Timestamp dt:dt=""r8"">5666755557</Timestamp><Current dt:dt=""r8"">0</Current><DateUtc dt:dt=""string"">2022-12-23T07:27:09Z</DateUtc></FrequencyChange></FrequencyChanges></Clock>\n",Wisconsin-1170-3,59.957,1.0.0.551,1,1372352226,2.0.10.356,2.0.10.356,12-23-2022,12/23/2022 7:27:09 AM,15:27:09,2.0.10.252,2,,,,1.0,1.0,1.0,BlockProc,List3,2,,,,,,,,,,,,,,,,,1.0,1.0,2.0,,,,,,,ColorProc,List2,,,,,,,,,3.0,BUTTON1.png,BUTTON2.PNG,BUTTON3.png,BUTTON4.png,greentriangle3.png,7.0,1.0,3.0,,,,z,0.0,,,,,,,0.0,TrialProc,ColorList,,,,,,,1.0,z,0.0,1.0,327390.0,0.0,z,2114.0,color
Wisconsin,1170,3,"<?xml version=""1.0""?>\n<Clock xmlns:dt=""urn:schemas-microsoft-com:datatypes""><Description dt:dt=""string"">E-Prime Primary Realtime Clock</Description><StartTime><Timestamp dt:dt=""int"">0</Timestamp><DateUtc dt:dt=""string"">2022-12-23T07:27:09Z</DateUtc></StartTime><FrequencyChanges><FrequencyChange><Frequency dt:dt=""r8"">2929882</Frequency><Timestamp dt:dt=""r8"">5666755557</Timestamp><Current dt:dt=""r8"">0</Current><DateUtc dt:dt=""string"">2022-12-23T07:27:09Z</DateUtc></FrequencyChange></FrequencyChanges></Clock>\n",Wisconsin-1170-3,59.957,1.0.0.551,1,1372352226,2.0.10.356,2.0.10.356,12-23-2022,12/23/2022 7:27:09 AM,15:27:09,2.0.10.252,2,,,,1.0,1.0,1.0,BlockProc,List3,2,,,,,,,,,,,,,,,,,1.0,1.0,2.0,,,,,,,ColorProc,List2,,,,,,,,,4.0,BUTTON1.png,BUTTON2.PNG,BUTTON3.png,BUTTON4.png,greencircle3.png,4.0,1.0,4.0,,,,z,0.0,,,,,,,0.0,TrialProc,ColorList,,,,,,,1.0,z,0.0,1.0,332043.0,0.0,z,933.0,color
Wisconsin,1170,3,"<?xml version=""1.0""?>\n<Clock xmlns:dt=""urn:schemas-microsoft-com:datatypes""><Description dt:dt=""string"">E-Prime Primary Realtime Clock</Description><StartTime><Timestamp dt:dt=""int"">0</Timestamp><DateUtc dt:dt=""string"">2022-12-23T07:27:09Z</DateUtc></StartTime><FrequencyChanges><FrequencyChange><Frequency dt:dt=""r8"">2929882</Frequency><Timestamp dt:dt=""r8"">5666755557</Timestamp><Current dt:dt=""r8"">0</Current><DateUtc dt:dt=""string"">2022-12-23T07:27:09Z</DateUtc></FrequencyChange></FrequencyChanges></Clock>\n",Wisconsin-1170-3,59.957,1.0.0.551,1,1372352226,2.0.10.356,2.0.10.356,12-23-2022,12/23/2022 7:27:09 AM,15:27:09,2.0.10.252,2,,,,1.0,1.0,1.0,BlockProc,List3,2,,,,,,,,,,,,,,,,,1.0,1.0,2.0,,,,,,,ColorProc,List2,,,,,,,,,5.0,BUTTON1.png,BUTTON2.PNG,BUTTON3.png,BUTTON4.png,greentriangle1.png,6.0,1.0,5.0,,,,z,0.0,,,,,,,0.0,TrialProc,ColorList,,,,,,,1.0,z,0.0,0.0,335512.0,0.0,z,1352.0,color
Wisconsin,1170,3,"<?xml version=""1.0""?>\n<Clock xmlns:dt=""urn:schemas-microsoft-com:datatypes""><Description dt:dt=""string"">E-Prime Primary Realtime Clock</Description><StartTime><Timestamp dt:dt=""int"">0</Timestamp><DateUtc dt:dt=""string"">2022-12-23T07:27:09Z</DateUtc></StartTime><FrequencyChanges><FrequencyChange><Frequency dt:dt=""r8"">2929882</Frequency><Timestamp dt:dt=""r8"">5666755557</Timestamp><Current dt:dt=""r8"">0</Current><DateUtc dt:dt=""string"">2022-12-23T07:27:09Z</DateUtc></FrequencyChange></FrequencyChanges></Clock>\n",Wisconsin-1170-3,59.957,1.0.0.551,1,1372352226,2.0.10.356,2.0.10.356,12-23-2022,12/23/2022 7:27:09 AM,15:27:09,2.0.10.252,2,,,,1.0,1.0,1.0,BlockProc,List3,2,,,,,,,,,,,,,,,,,1.0,1.0,2.0,,,,,,,ColorProc,List2,,,,,,,,,6.0,BUTTON1.png,BUTTON2.PNG,BUTTON3.png,BUTTON4.png,bluecross2.png,2.0,1.0,6.0,,,,v,0.0,,,,,,,0.0,TrialProc,ColorList,,,,,,,1.0,v,0.0,0.0,339398.0,0.0,v,1081.0,color
Wisconsin,1170,3,"<?xml version=""1.0""?>\n<Clock xmlns:dt=""urn:schemas-microsoft-com:datatypes""><Description dt:dt=""string"">E-Prime Primary Realtime Clock</Description><StartTime><Timestamp dt:dt=""int"">0</Timestamp><DateUtc dt:dt=""string"">2022-12-23T07:27:09Z</DateUtc></StartTime><FrequencyChanges><FrequencyChange><Frequency dt:dt=""r8"">2929882</Frequency><Timestamp dt:dt=""r8"">5666755557</Timestamp><Current dt:dt=""r8"">0</Current><DateUtc dt:dt=""string"">2022-12-23T07:27:09Z</DateUtc></FrequencyChange></FrequencyChanges></Clock>\n",Wisconsin-1170-3,59.957,1.0.0.551,1,1372352226,2.0.10.356,2.0.10.356,12-23-2022,12/23/2022 7:27:09 AM,15:27:09,2.0.10.252,2,,,,1.0,1.0,1.0,BlockProc,List3,2,,,,,,,,,,,,,,,,,1.0,1.0,2.0,,,,,,,ColorProc,List2,,,,,,,,,7.0,BUTTON1.png,BUTTON2.PNG,BUTTON3.png,BUTTON4.png,redcircle3.png,8.0,1.0,7.0,,,,c,0.0,,,,,,,0.0,TrialProc,ColorList,,,,,,,1.0,c,0.0,1.0,343018.0,0.0,c,645.0,color
Wisconsin,1170,3,"<?xml version=""1.0""?>\n<Clock xmlns:dt=""urn:schemas-microsoft-com:datatypes""><Description dt:dt=""string"">E-Prime Primary Realtime Clock</Description><StartTime><Timestamp dt:dt=""int"">0</Timestamp><DateUtc dt:dt=""string"">2022-12-23T07:27:09Z</DateUtc></StartTime><FrequencyChanges><FrequencyChange><Frequency dt:dt=""r8"">2929882</Frequency><Timestamp dt:dt=""r8"">5666755557</Timestamp><Current dt:dt=""r8"">0</Current><DateUtc dt:dt=""string"">2022-12-23T07:27:09Z</DateUtc></FrequencyChange></FrequencyChanges></Clock>\n",Wisconsin-1170-3,59.957,1.0.0.551,1,1372352226,2.0.10.356,2.0.10.356,12-23-2022,12/23/2022 7:27:09 AM,15:27:09,2.0.10.252,2,,,,1.0,1.0,1.0,BlockProc,List3,2,,,,,,,,,,,,,,,,,1.0,1.0,2.0,,,,,,,ColorProc,List2,,,,,,,,,8.0,BUTTON1.png,BUTTON2.PNG,BUTTON3.png,BUTTON4.png,yellowstar3.png,10.0,1.0,8.0,,,,x,0.0,,,,,,,0.0,TrialProc,ColorList,,,,,,,1.0,x,0.0,0.0,346203.0,0.0,x,772.0,color
Wisconsin,1170,3,"<?xml version=""1.0""?>\n<Clock xmlns:dt=""urn:schemas-microsoft-com:datatypes""><Description dt:dt=""string"">E-Prime Primary Realtime Clock</Description><StartTime><Timestamp dt:dt=""int"">0</Timestamp><DateUtc dt:dt=""string"">2022-12-23T07:27:09Z</DateUtc></StartTime><FrequencyChanges><FrequencyChange><Frequency dt:dt=""r8"">2929882</Frequency><Timestamp dt:dt=""r8"">5666755557</Timestamp><Current dt:dt=""r8"">0</Current><DateUtc dt:dt=""string"">2022-12-23T07:27:09Z</DateUtc></FrequencyChange></FrequencyChanges></Clock>\n",Wisconsin-1170-3,59.957,1.0.0.551,1,1372352226,2.0.10.356,2.0.10.356,12-23-2022,12/23/2022 7:27:09 AM,15:27:09,2.0.10.252,2,,,,1.0,1.0,1.0,BlockProc,List3,2,,,,,,,,,,,,,,,,,1.0,1.0,2.0,,,,,,,ColorProc,List2,,,,,,,,,9.0,BUTTON1.png,BUTTON2.PNG,BUTTON3.png,BUTTON4.png,bluecircle1.png,1.0,1.0,9.0,,,,v,0.0,,,,,,,0.0,TrialProc,ColorList,,,,,,,1.0,v,0.0,1.0,349506.0,0.0,v,813.0,color
Wisconsin,1170,3,"<?xml version=""1.0""?>\n<Clock xmlns:dt=""urn:schemas-microsoft-com:datatypes""><Description dt:dt=""string"">E-Prime Primary Realtime Clock</Description><StartTime><Timestamp dt:dt=""int"">0</Timestamp><DateUtc dt:dt=""string"">2022-12-23T07:27:09Z</DateUtc></StartTime><FrequencyChanges><FrequencyChange><Frequency dt:dt=""r8"">2929882</Frequency><Timestamp dt:dt=""r8"">5666755557</Timestamp><Current dt:dt=""r8"">0</Current><DateUtc dt:dt=""string"">2022-12-23T07:27:09Z</DateUtc></FrequencyChange></FrequencyChanges></Clock>\n",Wisconsin-1170-3,59.957,1.0.0.551,1,1372352226,2.0.10.356,2.0.10.356,12-23-2022,12/23/2022 7:27:09 AM,15:27:09,2.0.10.252,2,,,,1.0,1.0,1.0,BlockProc,List3,2,,,,,,,,,,,,,,,,,1.0,1.0,2.0,,,,,,,ColorProc,List2,,,,,,,,,10.0,BUTTON1.png,BUTTON2.PNG,BUTTON3.png,BUTTON4.png,bluetriangle3.png,3.0,1.0,10.0,,,,v,0.0,,,,,,,0.0,TrialProc,ColorList,,,,,,,1.0,v,0.0,1.0,352858.0,0.0,v,773.0,color
Wisconsin,1170,3,"<?xml version=""1.0""?>\n<Clock xmlns:dt=""urn:schemas-microsoft-com:datatypes""><Description dt:dt=""string"">E-Prime Primary Realtime Clock</Description><StartTime><Timestamp dt:dt=""int"">0</Timestamp><DateUtc dt:dt=""string"">2022-12-23T07:27:09Z</DateUtc></StartTime><FrequencyChanges><FrequencyChange><Frequency dt:dt=""r8"">2929882</Frequency><Timestamp dt:dt=""r8"">5666755557</Timestamp><Current dt:dt=""r8"">0</Current><DateUtc dt:dt=""string"">2022-12-23T07:27:09Z</DateUtc></FrequencyChange></FrequencyChanges></Clock>\n",Wisconsin-1170-3,59.957,1.0.0.551,1,1372352226,2.0.10.356,2.0.10.356,12-23-2022,12/23/2022 7:27:09 AM,15:27:09,2.0.10.252,2,,,,1.0,1.0,1.0,BlockProc,List3,3,,,,,,,,,,,,,,,,,2.0,1.0,3.0,,,,,,,NumberProc,List2,,,,,,,,,1.0,Button1.png,Button2.png,Button3.png,Button4.png,Bluecircle4.png,,,,,,,x,1.0,1.0,1.0,1.0,,,,0.0,TrialProc,NumberList,,,,,,,0.0,x,1.0,0.0,356160.0,0.0,v,638.0,number
Wisconsin,1170,3,"<?xml version=""1.0""?>\n<Clock xmlns:dt=""urn:schemas-microsoft-com:datatypes""><Description dt:dt=""string"">E-Prime Primary Realtime Clock</Description><StartTime><Timestamp dt:dt=""int"">0</Timestamp><DateUtc dt:dt=""string"">2022-12-23T07:27:09Z</DateUtc></StartTime><FrequencyChanges><FrequencyChange><Frequency dt:dt=""r8"">2929882</Frequency><Timestamp dt:dt=""r8"">5666755557</Timestamp><Current dt:dt=""r8"">0</Current><DateUtc dt:dt=""string"">2022-12-23T07:27:09Z</DateUtc></FrequencyChange></FrequencyChanges></Clock>\n",Wisconsin-1170-3,59.957,1.0.0.551,1,1372352226,2.0.10.356,2.0.10.356,12-23-2022,12/23/2022 7:27:09 AM,15:27:09,2.0.10.252,2,,,,1.0,1.0,1.0,BlockProc,List3,3,,,,,,,,,,,,,,,,,2.0,1.0,3.0,,,,,,,NumberProc,List2,,,,,,,,,2.0,Button1.png,Button2.png,Button3.png,Button4.png,Yellowcross3.png,,,,,,,c,1.0,10.0,1.0,2.0,,,,0.0,TrialProc,NumberList,,,,,,,0.0,c,0.0,0.0,359329.0,0.0,x,989.0,number
Wisconsin,1170,3,"<?xml version=""1.0""?>\n<Clock xmlns:dt=""urn:schemas-microsoft-com:datatypes""><Description dt:dt=""string"">E-Prime Primary Realtime Clock</Description><StartTime><Timestamp dt:dt=""int"">0</Timestamp><DateUtc dt:dt=""string"">2022-12-23T07:27:09Z</DateUtc></StartTime><FrequencyChanges><FrequencyChange><Frequency dt:dt=""r8"">2929882</Frequency><Timestamp dt:dt=""r8"">5666755557</Timestamp><Current dt:dt=""r8"">0</Current><DateUtc dt:dt=""string"">2022-12-23T07:27:09Z</DateUtc></FrequencyChange></FrequencyChanges></Clock>\n",Wisconsin-1170-3,59.957,1.0.0.551,1,1372352226,2.0.10.356,2.0.10.356,12-23-2022,12/23/2022 7:27:09 AM,15:27:09,2.0.10.252,2,,,,1.0,1.0,1.0,BlockProc,List3,3,,,,,,,,,,,,,,,,,2.0,1.0,3.0,,,,,,,NumberProc,List2,,,,,,,,,3.0,Button1.png,Button2.png,Button3.png,Button4.png,Greencircle4.png,,,,,,,x,1.0,4.0,1.0,3.0,,,,0.0,TrialProc,NumberList,,,,,,,0.0,x,0.0,1.0,362849.0,0.0,z,1053.0,number
Wisconsin,1170,3,"<?xml version=""1.0""?>\n<Clock xmlns:dt=""urn:schemas-microsoft-com:datatypes""><Description dt:dt=""string"">E-Prime Primary Realtime Clock</Description><StartTime><Timestamp dt:dt=""int"">0</Timestamp><DateUtc dt:dt=""string"">2022-12-23T07:27:09Z</DateUtc></StartTime><FrequencyChanges><FrequencyChange><Frequency dt:dt=""r8"">2929882</Frequency><Timestamp dt:dt=""r8"">5666755557</Timestamp><Current dt:dt=""r8"">0</Current><DateUtc dt:dt=""string"">2022-12-23T07:27:09Z</DateUtc></FrequencyChange></FrequencyChanges></Clock>\n",Wisconsin-1170-3,59.957,1.0.0.551,1,1372352226,2.0.10.356,2.0.10.356,12-23-2022,12/23/2022 7:27:09 AM,15:27:09,2.0.10.252,2,,,,1.0,1.0,1.0,BlockProc,List3,3,,,,,,,,,,,,,,,,,2.0,1.0,3.0,,,,,,,NumberProc,List2,,,,,,,,,4.0,Button1.png,Button2.png,Button3.png,Button4.png,Redstar2.png,,,,,,,z,0.0,7.0,1.0,4.0,,,,0.0,TrialProc,NumberList,,,,,,,1.0,z,1.0,0.0,366434.0,0.0,z,1148.0,number
Wisconsin,1170,3,"<?xml version=""1.0""?>\n<Clock xmlns:dt=""urn:schemas-microsoft-com:datatypes""><Description dt:dt=""string"">E-Prime Primary Realtime Clock</Description><StartTime><Timestamp dt:dt=""int"">0</Timestamp><DateUtc dt:dt=""string"">2022-12-23T07:27:09Z</DateUtc></StartTime><FrequencyChanges><FrequencyChange><Frequency dt:dt=""r8"">2929882</Frequency><Timestamp dt:dt=""r8"">5666755557</Timestamp><Current dt:dt=""r8"">0</Current><DateUtc dt:dt=""string"">2022-12-23T07:27:09Z</DateUtc></FrequencyChange></FrequencyChanges></Clock>\n",Wisconsin-1170-3,59.957,1.0.0.551,1,1372352226,2.0.10.356,2.0.10.356,12-23-2022,12/23/2022 7:27:09 AM,15:27:09,2.0.10.252,2,,,,1.0,1.0,1.0,BlockProc,List3,3,,,,,,,,,,,,,,,,,2.0,1.0,3.0,,,,,,,NumberProc,List2,,,,,,,,,5.0,Button1.png,Button2.png,Button3.png,Button4.png,Redtriangle4.png,,,,,,,x,0.0,8.0,1.0,5.0,,,,0.0,TrialProc,NumberList,,,,,,,1.0,x,0.0,0.0,370120.0,0.0,x,1125.0,number
Wisconsin,1170,3,"<?xml version=""1.0""?>\n<Clock xmlns:dt=""urn:schemas-microsoft-com:datatypes""><Description dt:dt=""string"">E-Prime Primary Realtime Clock</Description><StartTime><Timestamp dt:dt=""int"">0</Timestamp><DateUtc dt:dt=""string"">2022-12-23T07:27:09Z</DateUtc></StartTime><FrequencyChanges><FrequencyChange><Frequency dt:dt=""r8"">2929882</Frequency><Timestamp dt:dt=""r8"">5666755557</Timestamp><Current dt:dt=""r8"">0</Current><DateUtc dt:dt=""string"">2022-12-23T07:27:09Z</DateUtc></FrequencyChange></FrequencyChanges></Clock>\n",Wisconsin-1170-3,59.957,1.0.0.551,1,1372352226,2.0.10.356,2.0.10.356,12-23-2022,12/23/2022 7:27:09 AM,15:27:09,2.0.10.252,2,,,,1.0,1.0,1.0,BlockProc,List3,3,,,,,,,,,,,,,,,,,2.0,1.0,3.0,,,,,,,NumberProc,List2,,,,,,,,,6.0,Button1.png,Button2.png,Button3.png,Button4.png,Greencross3.png,,,,,,,c,0.0,5.0,1.0,6.0,,,,0.0,TrialProc,NumberList,,,,,,,1.0,c,0.0,1.0,373773.0,0.0,c,864.0,number
Wisconsin,1170,3,"<?xml version=""1.0""?>\n<Clock xmlns:dt=""urn:schemas-microsoft-com:datatypes""><Description dt:dt=""string"">E-Prime Primary Realtime Clock</Description><StartTime><Timestamp dt:dt=""int"">0</Timestamp><DateUtc dt:dt=""string"">2022-12-23T07:27:09Z</DateUtc></StartTime><FrequencyChanges><FrequencyChange><Frequency dt:dt=""r8"">2929882</Frequency><Timestamp dt:dt=""r8"">5666755557</Timestamp><Current dt:dt=""r8"">0</Current><DateUtc dt:dt=""string"">2022-12-23T07:27:09Z</DateUtc></FrequencyChange></FrequencyChanges></Clock>\n",Wisconsin-1170-3,59.957,1.0.0.551,1,1372352226,2.0.10.356,2.0.10.356,12-23-2022,12/23/2022 7:27:09 AM,15:27:09,2.0.10.252,2,,,,1.0,1.0,1.0,BlockProc,List3,3,,,,,,,,,,,,,,,,,2.0,1.0,3.0,,,,,,,NumberProc,List2,,,,,,,,,7.0,Button1.png,Button2.png,Button3.png,Button4.png,Yellowcross1.png,,,,,,,v,0.0,9.0,1.0,7.0,,,,0.0,TrialProc,NumberList,,,,,,,1.0,v,1.0,0.0,377175.0,0.0,v,2598.0,number
Wisconsin,1170,3,"<?xml version=""1.0""?>\n<Clock xmlns:dt=""urn:schemas-microsoft-com:datatypes""><Description dt:dt=""string"">E-Prime Primary Realtime Clock</Description><StartTime><Timestamp dt:dt=""int"">0</Timestamp><DateUtc dt:dt=""string"">2022-12-23T07:27:09Z</DateUtc></StartTime><FrequencyChanges><FrequencyChange><Frequency dt:dt=""r8"">2929882</Frequency><Timestamp dt:dt=""r8"">5666755557</Timestamp><Current dt:dt=""r8"">0</Current><DateUtc dt:dt=""string"">2022-12-23T07:27:09Z</DateUtc></FrequencyChange></FrequencyChanges></Clock>\n",Wisconsin-1170-3,59.957,1.0.0.551,1,1372352226,2.0.10.356,2.0.10.356,12-23-2022,12/23/2022 7:27:09 AM,15:27:09,2.0.10.252,2,,,,1.0,1.0,1.0,BlockProc,List3,3,,,,,,,,,,,,,,,,,2.0,1.0,3.0,,,,,,,NumberProc,List2,,,,,,,,,8.0,Button1.png,Button2.png,Button3.png,Button4.png,Bluetriangle1.png,,,,,,,v,0.0,3.0,1.0,8.0,,,,0.0,TrialProc,NumberList,,,,,,,1.0,v,1.0,0.0,382312.0,0.0,v,949.0,number
Wisconsin,1170,3,"<?xml version=""1.0""?>\n<Clock xmlns:dt=""urn:schemas-microsoft-com:datatypes""><Description dt:dt=""string"">E-Prime Primary Realtime Clock</Description><StartTime><Timestamp dt:dt=""int"">0</Timestamp><DateUtc dt:dt=""string"">2022-12-23T07:27:09Z</DateUtc></StartTime><FrequencyChanges><FrequencyChange><Frequency dt:dt=""r8"">2929882</Frequency><Timestamp dt:dt=""r8"">5666755557</Timestamp><Current dt:dt=""r8"">0</Current><DateUtc dt:dt=""string"">2022-12-23T07:27:09Z</DateUtc></FrequencyChange></FrequencyChanges></Clock>\n",Wisconsin-1170-3,59.957,1.0.0.551,1,1372352226,2.0.10.356,2.0.10.356,12-23-2022,12/23/2022 7:27:09 AM,15:27:09,2.0.10.252,2,,,,1.0,1.0,1.0,BlockProc,List3,3,,,,,,,,,,,,,,,,,2.0,1.0,3.0,,,,,,,NumberProc,List2,,,,,,,,,9.0,Button1.png,Button2.png,Button3.png,Button4.png,Redcircle4.png,,,,,,,x,1.0,6.0,1.0,9.0,,,,0.0,TrialProc,NumberList,,,,,,,0.0,x,0.0,0.0,385798.0,0.0,c,742.0,number
Wisconsin,1170,3,"<?xml version=""1.0""?>\n<Clock xmlns:dt=""urn:schemas-microsoft-com:datatypes""><Description dt:dt=""string"">E-Prime Primary Realtime Clock</Description><StartTime><Timestamp dt:dt=""int"">0</Timestamp><DateUtc dt:dt=""string"">2022-12-23T07:27:09Z</DateUtc></StartTime><FrequencyChanges><FrequencyChange><Frequency dt:dt=""r8"">2929882</Frequency><Timestamp dt:dt=""r8"">5666755557</Timestamp><Current dt:dt=""r8"">0</Current><DateUtc dt:dt=""string"">2022-12-23T07:27:09Z</DateUtc></FrequencyChange></FrequencyChanges></Clock>\n",Wisconsin-1170-3,59.957,1.0.0.551,1,1372352226,2.0.10.356,2.0.10.356,12-23-2022,12/23/2022 7:27:09 AM,15:27:09,2.0.10.252,2,,,,1.0,1.0,1.0,BlockProc,List3,3,,,,,,,,,,,,,,,,,2.0,1.0,3.0,,,,,,,NumberProc,List2,,,,,,,,,10.0,Button1.png,Button2.png,Button3.png,Button4.png,Bluestar2.png,,,,,,,z,0.0,2.0,1.0,10.0,,,,0.0,TrialProc,NumberList,,,,,,,1.0,z,0.0,1.0,389084.0,0.0,z,960.0,number
Wisconsin,1170,3,"<?xml version=""1.0""?>\n<Clock xmlns:dt=""urn:schemas-microsoft-com:datatypes""><Description dt:dt=""string"">E-Prime Primary Realtime Clock</Description><StartTime><Timestamp dt:dt=""int"">0</Timestamp><DateUtc dt:dt=""string"">2022-12-23T07:27:09Z</DateUtc></StartTime><FrequencyChanges><FrequencyChange><Frequency dt:dt=""r8"">2929882</Frequency><Timestamp dt:dt=""r8"">5666755557</Timestamp><Current dt:dt=""r8"">0</Current><DateUtc dt:dt=""string"">2022-12-23T07:27:09Z</DateUtc></FrequencyChange></FrequencyChanges></Clock>\n",Wisconsin-1170-3,59.957,1.0.0.551,1,1372352226,2.0.10.356,2.0.10.356,12-23-2022,12/23/2022 7:27:09 AM,15:27:09,2.0.10.252,3,,,,2.0,1.0,2.0,BlockProc2,List3,1,,,,,,,,,,,,,,,,,,,,3.0,1.0,1.0,,,,ShapeProc2,List4,,,,,,,,,1.0,Button1.png,Button2.png,Button3.png,Button4.png,Yellowstar2.png,,,,,,,v,1.0,,,,,,,0.0,TrialProc,ShapeList1,,,,9.0,1.0,1.0,0.0,v,0.0,1.0,392587.0,0.0,z,1393.0,Shape
Wisconsin,1170,3,"<?xml version=""1.0""?>\n<Clock xmlns:dt=""urn:schemas-microsoft-com:datatypes""><Description dt:dt=""string"">E-Prime Primary Realtime Clock</Description><StartTime><Timestamp dt:dt=""int"">0</Timestamp><DateUtc dt:dt=""string"">2022-12-23T07:27:09Z</DateUtc></StartTime><FrequencyChanges><FrequencyChange><Frequency dt:dt=""r8"">2929882</Frequency><Timestamp dt:dt=""r8"">5666755557</Timestamp><Current dt:dt=""r8"">0</Current><DateUtc dt:dt=""string"">2022-12-23T07:27:09Z</DateUtc></FrequencyChange></FrequencyChanges></Clock>\n",Wisconsin-1170-3,59.957,1.0.0.551,1,1372352226,2.0.10.356,2.0.10.356,12-23-2022,12/23/2022 7:27:09 AM,15:27:09,2.0.10.252,3,,,,2.0,1.0,2.0,BlockProc2,List3,1,,,,,,,,,,,,,,,,,,,,3.0,1.0,1.0,,,,ShapeProc2,List4,,,,,,,,,2.0,Button1.png,Button2.png,Button3.png,Button4.png,Bluetriangle2.png,,,,,,,x,0.0,,,,,,,0.0,TrialProc,ShapeList1,,,,2.0,1.0,2.0,1.0,x,0.0,1.0,396506.0,0.0,x,2498.0,Shape
Wisconsin,1170,3,"<?xml version=""1.0""?>\n<Clock xmlns:dt=""urn:schemas-microsoft-com:datatypes""><Description dt:dt=""string"">E-Prime Primary Realtime Clock</Description><StartTime><Timestamp dt:dt=""int"">0</Timestamp><DateUtc dt:dt=""string"">2022-12-23T07:27:09Z</DateUtc></StartTime><FrequencyChanges><FrequencyChange><Frequency dt:dt=""r8"">2929882</Frequency><Timestamp dt:dt=""r8"">5666755557</Timestamp><Current dt:dt=""r8"">0</Current><DateUtc dt:dt=""string"">2022-12-23T07:27:09Z</DateUtc></FrequencyChange></FrequencyChanges></Clock>\n",Wisconsin-1170-3,59.957,1.0.0.551,1,1372352226,2.0.10.356,2.0.10.356,12-23-2022,12/23/2022 7:27:09 AM,15:27:09,2.0.10.252,3,,,,2.0,1.0,2.0,BlockProc2,List3,1,,,,,,,,,,,,,,,,,,,,3.0,1.0,1.0,,,,ShapeProc2,List4,,,,,,,,,3.0,Button1.png,Button2.png,Button3.png,Button4.png,Bluecircle3.png,,,,,,,z,0.0,,,,,,,0.0,TrialProc,ShapeList1,,,,1.0,1.0,3.0,1.0,z,0.0,1.0,401543.0,0.0,z,1348.0,Shape
Wisconsin,1170,3,"<?xml version=""1.0""?>\n<Clock xmlns:dt=""urn:schemas-microsoft-com:datatypes""><Description dt:dt=""string"">E-Prime Primary Realtime Clock</Description><StartTime><Timestamp dt:dt=""int"">0</Timestamp><DateUtc dt:dt=""string"">2022-12-23T07:27:09Z</DateUtc></StartTime><FrequencyChanges><FrequencyChange><Frequency dt:dt=""r8"">2929882</Frequency><Timestamp dt:dt=""r8"">5666755557</Timestamp><Current dt:dt=""r8"">0</Current><DateUtc dt:dt=""string"">2022-12-23T07:27:09Z</DateUtc></FrequencyChange></FrequencyChanges></Clock>\n",Wisconsin-1170-3,59.957,1.0.0.551,1,1372352226,2.0.10.356,2.0.10.356,12-23-2022,12/23/2022 7:27:09 AM,15:27:09,2.0.10.252,3,,,,2.0,1.0,2.0,BlockProc2,List3,1,,,,,,,,,,,,,,,,,,,,3.0,1.0,1.0,,,,ShapeProc2,List4,,,,,,,,,4.0,Button1.png,Button2.png,Button3.png,Button4.png,yellowcross4.png,,,,,,,c,0.0,,,,,,,0.0,TrialProc,ShapeList1,,,,8.0,1.0,4.0,1.0,c,0.0,1.0,405429.0,0.0,c,1078.0,Shape
Wisconsin,1170,3,"<?xml version=""1.0""?>\n<Clock xmlns:dt=""urn:schemas-microsoft-com:datatypes""><Description dt:dt=""string"">E-Prime Primary Realtime Clock</Description><StartTime><Timestamp dt:dt=""int"">0</Timestamp><DateUtc dt:dt=""string"">2022-12-23T07:27:09Z</DateUtc></StartTime><FrequencyChanges><FrequencyChange><Frequency dt:dt=""r8"">2929882</Frequency><Timestamp dt:dt=""r8"">5666755557</Timestamp><Current dt:dt=""r8"">0</Current><DateUtc dt:dt=""string"">2022-12-23T07:27:09Z</DateUtc></FrequencyChange></FrequencyChanges></Clock>\n",Wisconsin-1170-3,59.957,1.0.0.551,1,1372352226,2.0.10.356,2.0.10.356,12-23-2022,12/23/2022 7:27:09 AM,15:27:09,2.0.10.252,3,,,,2.0,1.0,2.0,BlockProc2,List3,1,,,,,,,,,,,,,,,,,,,,3.0,1.0,1.0,,,,ShapeProc2,List4,,,,,,,,,5.0,Button1.png,Button2.png,Button3.png,Button4.png,Redtriangle3.png,,,,,,,x,0.0,,,,,,,0.0,TrialProc,ShapeList1,,,,7.0,1.0,5.0,1.0,x,0.0,0.0,409048.0,0.0,x,1075.0,Shape
Wisconsin,1170,3,"<?xml version=""1.0""?>\n<Clock xmlns:dt=""urn:schemas-microsoft-com:datatypes""><Description dt:dt=""string"">E-Prime Primary Realtime Clock</Description><StartTime><Timestamp dt:dt=""int"">0</Timestamp><DateUtc dt:dt=""string"">2022-12-23T07:27:09Z</DateUtc></StartTime><FrequencyChanges><FrequencyChange><Frequency dt:dt=""r8"">2929882</Frequency><Timestamp dt:dt=""r8"">5666755557</Timestamp><Current dt:dt=""r8"">0</Current><DateUtc dt:dt=""string"">2022-12-23T07:27:09Z</DateUtc></FrequencyChange></FrequencyChanges></Clock>\n",Wisconsin-1170-3,59.957,1.0.0.551,1,1372352226,2.0.10.356,2.0.10.356,12-23-2022,12/23/2022 7:27:09 AM,15:27:09,2.0.10.252,3,,,,2.0,1.0,2.0,BlockProc2,List3,1,,,,,,,,,,,,,,,,,,,,3.0,1.0,1.0,,,,ShapeProc2,List4,,,,,,,,,6.0,Button1.png,Button2.png,Button3.png,Button4.png,Yellowtriangle1.png,,,,,,,x,0.0,,,,,,,0.0,TrialProc,ShapeList1,,,,10.0,1.0,6.0,1.0,x,0.0,1.0,412651.0,0.0,x,912.0,Shape
Wisconsin,1170,3,"<?xml version=""1.0""?>\n<Clock xmlns:dt=""urn:schemas-microsoft-com:datatypes""><Description dt:dt=""string"">E-Prime Primary Realtime Clock</Description><StartTime><Timestamp dt:dt=""int"">0</Timestamp><DateUtc dt:dt=""string"">2022-12-23T07:27:09Z</DateUtc></StartTime><FrequencyChanges><FrequencyChange><Frequency dt:dt=""r8"">2929882</Frequency><Timestamp dt:dt=""r8"">5666755557</Timestamp><Current dt:dt=""r8"">0</Current><DateUtc dt:dt=""string"">2022-12-23T07:27:09Z</DateUtc></FrequencyChange></FrequencyChanges></Clock>\n",Wisconsin-1170-3,59.957,1.0.0.551,1,1372352226,2.0.10.356,2.0.10.356,12-23-2022,12/23/2022 7:27:09 AM,15:27:09,2.0.10.252,3,,,,2.0,1.0,2.0,BlockProc2,List3,1,,,,,,,,,,,,,,,,,,,,3.0,1.0,1.0,,,,ShapeProc2,List4,,,,,,,,,7.0,Button1.png,Button2.png,Button3.png,Button4.png,redcircle1.png,,,,,,,z,0.0,,,,,,,0.0,TrialProc,ShapeList1,,,,4.0,1.0,7.0,1.0,z,0.0,0.0,416103.0,0.0,z,947.0,Shape
Wisconsin,1170,3,"<?xml version=""1.0""?>\n<Clock xmlns:dt=""urn:schemas-microsoft-com:datatypes""><Description dt:dt=""string"">E-Prime Primary Realtime Clock</Description><StartTime><Timestamp dt:dt=""int"">0</Timestamp><DateUtc dt:dt=""string"">2022-12-23T07:27:09Z</DateUtc></StartTime><FrequencyChanges><FrequencyChange><Frequency dt:dt=""r8"">2929882</Frequency><Timestamp dt:dt=""r8"">5666755557</Timestamp><Current dt:dt=""r8"">0</Current><DateUtc dt:dt=""string"">2022-12-23T07:27:09Z</DateUtc></FrequencyChange></FrequencyChanges></Clock>\n",Wisconsin-1170-3,59.957,1.0.0.551,1,1372352226,2.0.10.356,2.0.10.356,12-23-2022,12/23/2022 7:27:09 AM,15:27:09,2.0.10.252,3,,,,2.0,1.0,2.0,BlockProc2,List3,1,,,,,,,,,,,,,,,,,,,,3.0,1.0,1.0,,,,ShapeProc2,List4,,,,,,,,,8.0,Button1.png,Button2.png,Button3.png,Button4.png,Redcross2.png,,,,,,,c,0.0,,,,,,,0.0,TrialProc,ShapeList1,,,,5.0,1.0,8.0,1.0,c,0.0,1.0,419589.0,0.0,c,1013.0,Shape
Wisconsin,1170,3,"<?xml version=""1.0""?>\n<Clock xmlns:dt=""urn:schemas-microsoft-com:datatypes""><Description dt:dt=""string"">E-Prime Primary Realtime Clock</Description><StartTime><Timestamp dt:dt=""int"">0</Timestamp><DateUtc dt:dt=""string"">2022-12-23T07:27:09Z</DateUtc></StartTime><FrequencyChanges><FrequencyChange><Frequency dt:dt=""r8"">2929882</Frequency><Timestamp dt:dt=""r8"">5666755557</Timestamp><Current dt:dt=""r8"">0</Current><DateUtc dt:dt=""string"">2022-12-23T07:27:09Z</DateUtc></FrequencyChange></FrequencyChanges></Clock>\n",Wisconsin-1170-3,59.957,1.0.0.551,1,1372352226,2.0.10.356,2.0.10.356,12-23-2022,12/23/2022 7:27:09 AM,15:27:09,2.0.10.252,3,,,,2.0,1.0,2.0,BlockProc2,List3,1,,,,,,,,,,,,,,,,,,,,3.0,1.0,1.0,,,,ShapeProc2,List4,,,,,,,,,9.0,Button1.png,Button2.png,Button3.png,Button4.png,Redstar3.png,,,,,,,v,0.0,,,,,,,0.0,TrialProc,ShapeList1,,,,6.0,1.0,9.0,1.0,v,0.0,1.0,423142.0,0.0,v,2116.0,Shape
Wisconsin,1170,3,"<?xml version=""1.0""?>\n<Clock xmlns:dt=""urn:schemas-microsoft-com:datatypes""><Description dt:dt=""string"">E-Prime Primary Realtime Clock</Description><StartTime><Timestamp dt:dt=""int"">0</Timestamp><DateUtc dt:dt=""string"">2022-12-23T07:27:09Z</DateUtc></StartTime><FrequencyChanges><FrequencyChange><Frequency dt:dt=""r8"">2929882</Frequency><Timestamp dt:dt=""r8"">5666755557</Timestamp><Current dt:dt=""r8"">0</Current><DateUtc dt:dt=""string"">2022-12-23T07:27:09Z</DateUtc></FrequencyChange></FrequencyChanges></Clock>\n",Wisconsin-1170-3,59.957,1.0.0.551,1,1372352226,2.0.10.356,2.0.10.356,12-23-2022,12/23/2022 7:27:09 AM,15:27:09,2.0.10.252,3,,,,2.0,1.0,2.0,BlockProc2,List3,1,,,,,,,,,,,,,,,,,,,,3.0,1.0,1.0,,,,ShapeProc2,List4,,,,,,,,,10.0,Button1.png,Button2.png,Button3.png,Button4.png,Greenstar3.png,,,,,,,v,1.0,,,,,,,0.0,TrialProc,ShapeList1,,,,3.0,1.0,10.0,0.0,v,0.0,1.0,427795.0,0.0,z,903.0,Shape
Wisconsin,1170,3,"<?xml version=""1.0""?>\n<Clock xmlns:dt=""urn:schemas-microsoft-com:datatypes""><Description dt:dt=""string"">E-Prime Primary Realtime Clock</Description><StartTime><Timestamp dt:dt=""int"">0</Timestamp><DateUtc dt:dt=""string"">2022-12-23T07:27:09Z</DateUtc></StartTime><FrequencyChanges><FrequencyChange><Frequency dt:dt=""r8"">2929882</Frequency><Timestamp dt:dt=""r8"">5666755557</Timestamp><Current dt:dt=""r8"">0</Current><DateUtc dt:dt=""string"">2022-12-23T07:27:09Z</DateUtc></FrequencyChange></FrequencyChanges></Clock>\n",Wisconsin-1170-3,59.957,1.0.0.551,1,1372352226,2.0.10.356,2.0.10.356,12-23-2022,12/23/2022 7:27:09 AM,15:27:09,2.0.10.252,3,,,,2.0,1.0,2.0,BlockProc2,List3,2,,,,,,,,,,,,,,,,,,,,1.0,1.0,2.0,,,,ColorProc2,List4,,,,,,,,,1.0,BUTTON1.png,BUTTON2.PNG,BUTTON3.png,BUTTON4.png,redstar4.png,,,,8.0,1.0,1.0,c,1.0,,,,,,,0.0,TrialProc,ColorList2,,,,,,,0.0,c,0.0,1.0,431231.0,0.0,v,1066.0,color
Wisconsin,1170,3,"<?xml version=""1.0""?>\n<Clock xmlns:dt=""urn:schemas-microsoft-com:datatypes""><Description dt:dt=""string"">E-Prime Primary Realtime Clock</Description><StartTime><Timestamp dt:dt=""int"">0</Timestamp><DateUtc dt:dt=""string"">2022-12-23T07:27:09Z</DateUtc></StartTime><FrequencyChanges><FrequencyChange><Frequency dt:dt=""r8"">2929882</Frequency><Timestamp dt:dt=""r8"">5666755557</Timestamp><Current dt:dt=""r8"">0</Current><DateUtc dt:dt=""string"">2022-12-23T07:27:09Z</DateUtc></FrequencyChange></FrequencyChanges></Clock>\n",Wisconsin-1170-3,59.957,1.0.0.551,1,1372352226,2.0.10.356,2.0.10.356,12-23-2022,12/23/2022 7:27:09 AM,15:27:09,2.0.10.252,3,,,,2.0,1.0,2.0,BlockProc2,List3,2,,,,,,,,,,,,,,,,,,,,1.0,1.0,2.0,,,,ColorProc2,List4,,,,,,,,,2.0,BUTTON1.png,BUTTON2.PNG,BUTTON3.png,BUTTON4.png,Redcircle2.png,,,,7.0,1.0,2.0,c,1.0,,,,,,,0.0,TrialProc,ColorList2,,,,,,,0.0,c,1.0,0.0,434833.0,0.0,z,1592.0,color
Wisconsin,1170,3,"<?xml version=""1.0""?>\n<Clock xmlns:dt=""urn:schemas-microsoft-com:datatypes""><Description dt:dt=""string"">E-Prime Primary Realtime Clock</Description><StartTime><Timestamp dt:dt=""int"">0</Timestamp><DateUtc dt:dt=""string"">2022-12-23T07:27:09Z</DateUtc></StartTime><FrequencyChanges><FrequencyChange><Frequency dt:dt=""r8"">2929882</Frequency><Timestamp dt:dt=""r8"">5666755557</Timestamp><Current dt:dt=""r8"">0</Current><DateUtc dt:dt=""string"">2022-12-23T07:27:09Z</DateUtc></FrequencyChange></FrequencyChanges></Clock>\n",Wisconsin-1170-3,59.957,1.0.0.551,1,1372352226,2.0.10.356,2.0.10.356,12-23-2022,12/23/2022 7:27:09 AM,15:27:09,2.0.10.252,3,,,,2.0,1.0,2.0,BlockProc2,List3,2,,,,,,,,,,,,,,,,,,,,1.0,1.0,2.0,,,,ColorProc2,List4,,,,,,,,,3.0,BUTTON1.png,BUTTON2.PNG,BUTTON3.png,BUTTON4.png,greencross4.png,,,,4.0,1.0,3.0,z,0.0,,,,,,,0.0,TrialProc,ColorList2,,,,,,,1.0,z,0.0,1.0,438970.0,0.0,z,1375.0,color
Wisconsin,1170,3,"<?xml version=""1.0""?>\n<Clock xmlns:dt=""urn:schemas-microsoft-com:datatypes""><Description dt:dt=""string"">E-Prime Primary Realtime Clock</Description><StartTime><Timestamp dt:dt=""int"">0</Timestamp><DateUtc dt:dt=""string"">2022-12-23T07:27:09Z</DateUtc></StartTime><FrequencyChanges><FrequencyChange><Frequency dt:dt=""r8"">2929882</Frequency><Timestamp dt:dt=""r8"">5666755557</Timestamp><Current dt:dt=""r8"">0</Current><DateUtc dt:dt=""string"">2022-12-23T07:27:09Z</DateUtc></FrequencyChange></FrequencyChanges></Clock>\n",Wisconsin-1170-3,59.957,1.0.0.551,1,1372352226,2.0.10.356,2.0.10.356,12-23-2022,12/23/2022 7:27:09 AM,15:27:09,2.0.10.252,3,,,,2.0,1.0,2.0,BlockProc2,List3,2,,,,,,,,,,,,,,,,,,,,1.0,1.0,2.0,,,,ColorProc2,List4,,,,,,,,,4.0,BUTTON1.png,BUTTON2.PNG,BUTTON3.png,BUTTON4.png,bluecross1.png,,,,1.0,1.0,4.0,v,0.0,,,,,,,0.0,TrialProc,ColorList2,,,,,,,1.0,v,0.0,1.0,442873.0,0.0,v,960.0,color
Wisconsin,1170,3,"<?xml version=""1.0""?>\n<Clock xmlns:dt=""urn:schemas-microsoft-com:datatypes""><Description dt:dt=""string"">E-Prime Primary Realtime Clock</Description><StartTime><Timestamp dt:dt=""int"">0</Timestamp><DateUtc dt:dt=""string"">2022-12-23T07:27:09Z</DateUtc></StartTime><FrequencyChanges><FrequencyChange><Frequency dt:dt=""r8"">2929882</Frequency><Timestamp dt:dt=""r8"">5666755557</Timestamp><Current dt:dt=""r8"">0</Current><DateUtc dt:dt=""string"">2022-12-23T07:27:09Z</DateUtc></FrequencyChange></FrequencyChanges></Clock>\n",Wisconsin-1170-3,59.957,1.0.0.551,1,1372352226,2.0.10.356,2.0.10.356,12-23-2022,12/23/2022 7:27:09 AM,15:27:09,2.0.10.252,3,,,,2.0,1.0,2.0,BlockProc2,List3,2,,,,,,,,,,,,,,,,,,,,1.0,1.0,2.0,,,,ColorProc2,List4,,,,,,,,,5.0,BUTTON1.png,BUTTON2.PNG,BUTTON3.png,BUTTON4.png,greenstar4.png,,,,5.0,1.0,5.0,z,0.0,,,,,,,0.0,TrialProc,ColorList2,,,,,,,1.0,z,0.0,1.0,446375.0,0.0,z,897.0,color
Wisconsin,1170,3,"<?xml version=""1.0""?>\n<Clock xmlns:dt=""urn:schemas-microsoft-com:datatypes""><Description dt:dt=""string"">E-Prime Primary Realtime Clock</Description><StartTime><Timestamp dt:dt=""int"">0</Timestamp><DateUtc dt:dt=""string"">2022-12-23T07:27:09Z</DateUtc></StartTime><FrequencyChanges><FrequencyChange><Frequency dt:dt=""r8"">2929882</Frequency><Timestamp dt:dt=""r8"">5666755557</Timestamp><Current dt:dt=""r8"">0</Current><DateUtc dt:dt=""string"">2022-12-23T07:27:09Z</DateUtc></FrequencyChange></FrequencyChanges></Clock>\n",Wisconsin-1170-3,59.957,1.0.0.551,1,1372352226,2.0.10.356,2.0.10.356,12-23-2022,12/23/2022 7:27:09 AM,15:27:09,2.0.10.252,3,,,,2.0,1.0,2.0,BlockProc2,List3,2,,,,,,,,,,,,,,,,,,,,1.0,1.0,2.0,,,,ColorProc2,List4,,,,,,,,,6.0,BUTTON1.png,BUTTON2.PNG,BUTTON3.png,BUTTON4.png,greentriangle2.png,,,,6.0,1.0,6.0,z,0.0,,,,,,,0.0,TrialProc,ColorList2,,,,,,,1.0,z,0.0,1.0,449811.0,0.0,z,693.0,color
Wisconsin,1170,3,"<?xml version=""1.0""?>\n<Clock xmlns:dt=""urn:schemas-microsoft-com:datatypes""><Description dt:dt=""string"">E-Prime Primary Realtime Clock</Description><StartTime><Timestamp dt:dt=""int"">0</Timestamp><DateUtc dt:dt=""string"">2022-12-23T07:27:09Z</DateUtc></StartTime><FrequencyChanges><FrequencyChange><Frequency dt:dt=""r8"">2929882</Frequency><Timestamp dt:dt=""r8"">5666755557</Timestamp><Current dt:dt=""r8"">0</Current><DateUtc dt:dt=""string"">2022-12-23T07:27:09Z</DateUtc></FrequencyChange></FrequencyChanges></Clock>\n",Wisconsin-1170-3,59.957,1.0.0.551,1,1372352226,2.0.10.356,2.0.10.356,12-23-2022,12/23/2022 7:27:09 AM,15:27:09,2.0.10.252,3,,,,2.0,1.0,2.0,BlockProc2,List3,2,,,,,,,,,,,,,,,,,,,,1.0,1.0,2.0,,,,ColorProc2,List4,,,,,,,,,7.0,BUTTON1.png,BUTTON2.PNG,BUTTON3.png,BUTTON4.png,bluestar3.png,,,,2.0,1.0,7.0,v,0.0,,,,,,,0.0,TrialProc,ColorList2,,,,,,,1.0,v,0.0,1.0,453047.0,0.0,v,673.0,color
Wisconsin,1170,3,"<?xml version=""1.0""?>\n<Clock xmlns:dt=""urn:schemas-microsoft-com:datatypes""><Description dt:dt=""string"">E-Prime Primary Realtime Clock</Description><StartTime><Timestamp dt:dt=""int"">0</Timestamp><DateUtc dt:dt=""string"">2022-12-23T07:27:09Z</DateUtc></StartTime><FrequencyChanges><FrequencyChange><Frequency dt:dt=""r8"">2929882</Frequency><Timestamp dt:dt=""r8"">5666755557</Timestamp><Current dt:dt=""r8"">0</Current><DateUtc dt:dt=""string"">2022-12-23T07:27:09Z</DateUtc></FrequencyChange></FrequencyChanges></Clock>\n",Wisconsin-1170-3,59.957,1.0.0.551,1,1372352226,2.0.10.356,2.0.10.356,12-23-2022,12/23/2022 7:27:09 AM,15:27:09,2.0.10.252,3,,,,2.0,1.0,2.0,BlockProc2,List3,2,,,,,,,,,,,,,,,,,,,,1.0,1.0,2.0,,,,ColorProc2,List4,,,,,,,,,8.0,BUTTON1.png,BUTTON2.PNG,BUTTON3.png,BUTTON4.png,Greencircle1.png,,,,3.0,1.0,8.0,z,0.0,,,,,,,0.0,TrialProc,ColorList2,,,,,,,1.0,z,0.0,1.0,456249.0,0.0,z,671.0,color
Wisconsin,1170,3,"<?xml version=""1.0""?>\n<Clock xmlns:dt=""urn:schemas-microsoft-com:datatypes""><Description dt:dt=""string"">E-Prime Primary Realtime Clock</Description><StartTime><Timestamp dt:dt=""int"">0</Timestamp><DateUtc dt:dt=""string"">2022-12-23T07:27:09Z</DateUtc></StartTime><FrequencyChanges><FrequencyChange><Frequency dt:dt=""r8"">2929882</Frequency><Timestamp dt:dt=""r8"">5666755557</Timestamp><Current dt:dt=""r8"">0</Current><DateUtc dt:dt=""string"">2022-12-23T07:27:09Z</DateUtc></FrequencyChange></FrequencyChanges></Clock>\n",Wisconsin-1170-3,59.957,1.0.0.551,1,1372352226,2.0.10.356,2.0.10.356,12-23-2022,12/23/2022 7:27:09 AM,15:27:09,2.0.10.252,3,,,,2.0,1.0,2.0,BlockProc2,List3,2,,,,,,,,,,,,,,,,,,,,1.0,1.0,2.0,,,,ColorProc2,List4,,,,,,,,,9.0,BUTTON1.png,BUTTON2.PNG,BUTTON3.png,BUTTON4.png,yellowcircle2.png,,,,9.0,1.0,9.0,x,0.0,,,,,,,0.0,TrialProc,ColorList2,,,,,,,1.0,x,0.0,1.0,459451.0,0.0,x,925.0,color
Wisconsin,1170,3,"<?xml version=""1.0""?>\n<Clock xmlns:dt=""urn:schemas-microsoft-com:datatypes""><Description dt:dt=""string"">E-Prime Primary Realtime Clock</Description><StartTime><Timestamp dt:dt=""int"">0</Timestamp><DateUtc dt:dt=""string"">2022-12-23T07:27:09Z</DateUtc></StartTime><FrequencyChanges><FrequencyChange><Frequency dt:dt=""r8"">2929882</Frequency><Timestamp dt:dt=""r8"">5666755557</Timestamp><Current dt:dt=""r8"">0</Current><DateUtc dt:dt=""string"">2022-12-23T07:27:09Z</DateUtc></FrequencyChange></FrequencyChanges></Clock>\n",Wisconsin-1170-3,59.957,1.0.0.551,1,1372352226,2.0.10.356,2.0.10.356,12-23-2022,12/23/2022 7:27:09 AM,15:27:09,2.0.10.252,3,,,,2.0,1.0,2.0,BlockProc2,List3,2,,,,,,,,,,,,,,,,,,,,1.0,1.0,2.0,,,,ColorProc2,List4,,,,,,,,,10.0,BUTTON1.png,BUTTON2.PNG,BUTTON3.png,BUTTON4.png,yellowtriangle3.png,,,,10.0,1.0,10.0,x,0.0,,,,,,,0.0,TrialProc,ColorList2,,,,,,,1.0,x,0.0,1.0,462904.0,0.0,x,799.0,color
Wisconsin,1170,3,"<?xml version=""1.0""?>\n<Clock xmlns:dt=""urn:schemas-microsoft-com:datatypes""><Description dt:dt=""string"">E-Prime Primary Realtime Clock</Description><StartTime><Timestamp dt:dt=""int"">0</Timestamp><DateUtc dt:dt=""string"">2022-12-23T07:27:09Z</DateUtc></StartTime><FrequencyChanges><FrequencyChange><Frequency dt:dt=""r8"">2929882</Frequency><Timestamp dt:dt=""r8"">5666755557</Timestamp><Current dt:dt=""r8"">0</Current><DateUtc dt:dt=""string"">2022-12-23T07:27:09Z</DateUtc></FrequencyChange></FrequencyChanges></Clock>\n",Wisconsin-1170-3,59.957,1.0.0.551,1,1372352226,2.0.10.356,2.0.10.356,12-23-2022,12/23/2022 7:27:09 AM,15:27:09,2.0.10.252,3,,,,2.0,1.0,2.0,BlockProc2,List3,3,,,,,,,,,,,,,,,,,,,,2.0,1.0,3.0,,,,NumberProc2,List4,,,,,,,,,1.0,Button1.png,Button2.png,Button3.png,Button4.png,Greenstar1.png,,,,,,,v,1.0,,,,5.0,1.0,1.0,0.0,TrialProc,NumberList1,,,,,,,0.0,v,0.0,0.0,466239.0,0.0,z,904.0,number
Wisconsin,1170,3,"<?xml version=""1.0""?>\n<Clock xmlns:dt=""urn:schemas-microsoft-com:datatypes""><Description dt:dt=""string"">E-Prime Primary Realtime Clock</Description><StartTime><Timestamp dt:dt=""int"">0</Timestamp><DateUtc dt:dt=""string"">2022-12-23T07:27:09Z</DateUtc></StartTime><FrequencyChanges><FrequencyChange><Frequency dt:dt=""r8"">2929882</Frequency><Timestamp dt:dt=""r8"">5666755557</Timestamp><Current dt:dt=""r8"">0</Current><DateUtc dt:dt=""string"">2022-12-23T07:27:09Z</DateUtc></FrequencyChange></FrequencyChanges></Clock>\n",Wisconsin-1170-3,59.957,1.0.0.551,1,1372352226,2.0.10.356,2.0.10.356,12-23-2022,12/23/2022 7:27:09 AM,15:27:09,2.0.10.252,3,,,,2.0,1.0,2.0,BlockProc2,List3,3,,,,,,,,,,,,,,,,,,,,2.0,1.0,3.0,,,,NumberProc2,List4,,,,,,,,,2.0,Button1.png,Button2.png,Button3.png,Button4.png,Redstar1.png,,,,,,,v,0.0,,,,6.0,1.0,2.0,0.0,TrialProc,NumberList1,,,,,,,1.0,v,0.0,1.0,469675.0,0.0,v,1404.0,number
Wisconsin,1170,3,"<?xml version=""1.0""?>\n<Clock xmlns:dt=""urn:schemas-microsoft-com:datatypes""><Description dt:dt=""string"">E-Prime Primary Realtime Clock</Description><StartTime><Timestamp dt:dt=""int"">0</Timestamp><DateUtc dt:dt=""string"">2022-12-23T07:27:09Z</DateUtc></StartTime><FrequencyChanges><FrequencyChange><Frequency dt:dt=""r8"">2929882</Frequency><Timestamp dt:dt=""r8"">5666755557</Timestamp><Current dt:dt=""r8"">0</Current><DateUtc dt:dt=""string"">2022-12-23T07:27:09Z</DateUtc></FrequencyChange></FrequencyChanges></Clock>\n",Wisconsin-1170-3,59.957,1.0.0.551,1,1372352226,2.0.10.356,2.0.10.356,12-23-2022,12/23/2022 7:27:09 AM,15:27:09,2.0.10.252,3,,,,2.0,1.0,2.0,BlockProc2,List3,3,,,,,,,,,,,,,,,,,,,,2.0,1.0,3.0,,,,NumberProc2,List4,,,,,,,,,3.0,Button1.png,Button2.png,Button3.png,Button4.png,Bluecross3.png,,,,,,,c,0.0,,,,1.0,1.0,3.0,0.0,TrialProc,NumberList1,,,,,,,1.0,c,0.0,0.0,473611.0,0.0,c,1436.0,number
Wisconsin,1170,3,"<?xml version=""1.0""?>\n<Clock xmlns:dt=""urn:schemas-microsoft-com:datatypes""><Description dt:dt=""string"">E-Prime Primary Realtime Clock</Description><StartTime><Timestamp dt:dt=""int"">0</Timestamp><DateUtc dt:dt=""string"">2022-12-23T07:27:09Z</DateUtc></StartTime><FrequencyChanges><FrequencyChange><Frequency dt:dt=""r8"">2929882</Frequency><Timestamp dt:dt=""r8"">5666755557</Timestamp><Current dt:dt=""r8"">0</Current><DateUtc dt:dt=""string"">2022-12-23T07:27:09Z</DateUtc></FrequencyChange></FrequencyChanges></Clock>\n",Wisconsin-1170-3,59.957,1.0.0.551,1,1372352226,2.0.10.356,2.0.10.356,12-23-2022,12/23/2022 7:27:09 AM,15:27:09,2.0.10.252,3,,,,2.0,1.0,2.0,BlockProc2,List3,3,,,,,,,,,,,,,,,,,,,,2.0,1.0,3.0,,,,NumberProc2,List4,,,,,,,,,4.0,Button1.png,Button2.png,Button3.png,Button4.png,Bluetriangle4.png,,,,,,,x,0.0,,,,3.0,1.0,4.0,0.0,TrialProc,NumberList1,,,,,,,1.0,x,0.0,1.0,477581.0,0.0,x,1385.0,number
Wisconsin,1170,3,"<?xml version=""1.0""?>\n<Clock xmlns:dt=""urn:schemas-microsoft-com:datatypes""><Description dt:dt=""string"">E-Prime Primary Realtime Clock</Description><StartTime><Timestamp dt:dt=""int"">0</Timestamp><DateUtc dt:dt=""string"">2022-12-23T07:27:09Z</DateUtc></StartTime><FrequencyChanges><FrequencyChange><Frequency dt:dt=""r8"">2929882</Frequency><Timestamp dt:dt=""r8"">5666755557</Timestamp><Current dt:dt=""r8"">0</Current><DateUtc dt:dt=""string"">2022-12-23T07:27:09Z</DateUtc></FrequencyChange></FrequencyChanges></Clock>\n",Wisconsin-1170-3,59.957,1.0.0.551,1,1372352226,2.0.10.356,2.0.10.356,12-23-2022,12/23/2022 7:27:09 AM,15:27:09,2.0.10.252,3,,,,2.0,1.0,2.0,BlockProc2,List3,3,,,,,,,,,,,,,,,,,,,,2.0,1.0,3.0,,,,NumberProc2,List4,,,,,,,,,5.0,Button1.png,Button2.png,Button3.png,Button4.png,Redtriangle2.png,,,,,,,z,0.0,,,,7.0,1.0,5.0,0.0,TrialProc,NumberList1,,,,,,,1.0,z,0.0,0.0,481500.0,0.0,z,1914.0,number
Wisconsin,1170,3,"<?xml version=""1.0""?>\n<Clock xmlns:dt=""urn:schemas-microsoft-com:datatypes""><Description dt:dt=""string"">E-Prime Primary Realtime Clock</Description><StartTime><Timestamp dt:dt=""int"">0</Timestamp><DateUtc dt:dt=""string"">2022-12-23T07:27:09Z</DateUtc></StartTime><FrequencyChanges><FrequencyChange><Frequency dt:dt=""r8"">2929882</Frequency><Timestamp dt:dt=""r8"">5666755557</Timestamp><Current dt:dt=""r8"">0</Current><DateUtc dt:dt=""string"">2022-12-23T07:27:09Z</DateUtc></FrequencyChange></FrequencyChanges></Clock>\n",Wisconsin-1170-3,59.957,1.0.0.551,1,1372352226,2.0.10.356,2.0.10.356,12-23-2022,12/23/2022 7:27:09 AM,15:27:09,2.0.10.252,3,,,,2.0,1.0,2.0,BlockProc2,List3,3,,,,,,,,,,,,,,,,,,,,2.0,1.0,3.0,,,,NumberProc2,List4,,,,,,,,,6.0,Button1.png,Button2.png,Button3.png,Button4.png,Greencross2.png,,,,,,,z,0.0,,,,4.0,1.0,6.0,0.0,TrialProc,NumberList1,,,,,,,1.0,z,1.0,0.0,485953.0,0.0,z,725.0,number
Wisconsin,1170,3,"<?xml version=""1.0""?>\n<Clock xmlns:dt=""urn:schemas-microsoft-com:datatypes""><Description dt:dt=""string"">E-Prime Primary Realtime Clock</Description><StartTime><Timestamp dt:dt=""int"">0</Timestamp><DateUtc dt:dt=""string"">2022-12-23T07:27:09Z</DateUtc></StartTime><FrequencyChanges><FrequencyChange><Frequency dt:dt=""r8"">2929882</Frequency><Timestamp dt:dt=""r8"">5666755557</Timestamp><Current dt:dt=""r8"">0</Current><DateUtc dt:dt=""string"">2022-12-23T07:27:09Z</DateUtc></FrequencyChange></FrequencyChanges></Clock>\n",Wisconsin-1170-3,59.957,1.0.0.551,1,1372352226,2.0.10.356,2.0.10.356,12-23-2022,12/23/2022 7:27:09 AM,15:27:09,2.0.10.252,3,,,,2.0,1.0,2.0,BlockProc2,List3,3,,,,,,,,,,,,,,,,,,,,2.0,1.0,3.0,,,,NumberProc2,List4,,,,,,,,,7.0,Button1.png,Button2.png,Button3.png,Button4.png,Bluestar4.png,,,,,,,x,0.0,,,,2.0,1.0,7.0,0.0,TrialProc,NumberList1,,,,,,,1.0,x,0.0,1.0,489206.0,0.0,x,1072.0,number
Wisconsin,1170,3,"<?xml version=""1.0""?>\n<Clock xmlns:dt=""urn:schemas-microsoft-com:datatypes""><Description dt:dt=""string"">E-Prime Primary Realtime Clock</Description><StartTime><Timestamp dt:dt=""int"">0</Timestamp><DateUtc dt:dt=""string"">2022-12-23T07:27:09Z</DateUtc></StartTime><FrequencyChanges><FrequencyChange><Frequency dt:dt=""r8"">2929882</Frequency><Timestamp dt:dt=""r8"">5666755557</Timestamp><Current dt:dt=""r8"">0</Current><DateUtc dt:dt=""string"">2022-12-23T07:27:09Z</DateUtc></FrequencyChange></FrequencyChanges></Clock>\n",Wisconsin-1170-3,59.957,1.0.0.551,1,1372352226,2.0.10.356,2.0.10.356,12-23-2022,12/23/2022 7:27:09 AM,15:27:09,2.0.10.252,3,,,,2.0,1.0,2.0,BlockProc2,List3,3,,,,,,,,,,,,,,,,,,,,2.0,1.0,3.0,,,,NumberProc2,List4,,,,,,,,,8.0,Button1.png,Button2.png,Button3.png,Button4.png,Yellowcross2.png,,,,,,,z,0.0,,,,9.0,1.0,8.0,0.0,TrialProc,NumberList1,,,,,,,1.0,z,0.0,0.0,492808.0,0.0,z,941.0,number
Wisconsin,1170,3,"<?xml version=""1.0""?>\n<Clock xmlns:dt=""urn:schemas-microsoft-com:datatypes""><Description dt:dt=""string"">E-Prime Primary Realtime Clock</Description><StartTime><Timestamp dt:dt=""int"">0</Timestamp><DateUtc dt:dt=""string"">2022-12-23T07:27:09Z</DateUtc></StartTime><FrequencyChanges><FrequencyChange><Frequency dt:dt=""r8"">2929882</Frequency><Timestamp dt:dt=""r8"">5666755557</Timestamp><Current dt:dt=""r8"">0</Current><DateUtc dt:dt=""string"">2022-12-23T07:27:09Z</DateUtc></FrequencyChange></FrequencyChanges></Clock>\n",Wisconsin-1170-3,59.957,1.0.0.551,1,1372352226,2.0.10.356,2.0.10.356,12-23-2022,12/23/2022 7:27:09 AM,15:27:09,2.0.10.252,3,,,,2.0,1.0,2.0,BlockProc2,List3,3,,,,,,,,,,,,,,,,,,,,2.0,1.0,3.0,,,,NumberProc2,List4,,,,,,,,,9.0,Button1.png,Button2.png,Button3.png,Button4.png,yellowcircle4.png,,,,,,,x,0.0,,,,8.0,1.0,9.0,0.0,TrialProc,NumberList1,,,,,,,1.0,x,0.0,1.0,496278.0,0.0,x,783.0,number
Wisconsin,1170,3,"<?xml version=""1.0""?>\n<Clock xmlns:dt=""urn:schemas-microsoft-com:datatypes""><Description dt:dt=""string"">E-Prime Primary Realtime Clock</Description><StartTime><Timestamp dt:dt=""int"">0</Timestamp><DateUtc dt:dt=""string"">2022-12-23T07:27:09Z</DateUtc></StartTime><FrequencyChanges><FrequencyChange><Frequency dt:dt=""r8"">2929882</Frequency><Timestamp dt:dt=""r8"">5666755557</Timestamp><Current dt:dt=""r8"">0</Current><DateUtc dt:dt=""string"">2022-12-23T07:27:09Z</DateUtc></FrequencyChange></FrequencyChanges></Clock>\n",Wisconsin-1170-3,59.957,1.0.0.551,1,1372352226,2.0.10.356,2.0.10.356,12-23-2022,12/23/2022 7:27:09 AM,15:27:09,2.0.10.252,3,,,,2.0,1.0,2.0,BlockProc2,List3,3,,,,,,,,,,,,,,,,,,,,2.0,1.0,3.0,,,,NumberProc2,List4,,,,,,,,,10.0,Button1.png,Button2.png,Button3.png,Button4.png,Yellowtriangle2.png,,,,,,,z,0.0,,,,10.0,1.0,10.0,0.0,TrialProc,NumberList1,,,,,,,1.0,z,0.0,1.0,499597.0,0.0,z,2312.0,number
