ExperimentName,Subject,Session,Clock.Information,DataFile.Basename,Display.RefreshRate,ExperimentVersion,Group,RandomSeed,RuntimeVersion,RuntimeVersionExpected,SessionDate,SessionStartDateTimeUtc,SessionTime,StudioVersion,Block,List1,List1.Cycle,List1.Sample,List3,List3.Cycle,List3.Sample,Procedure[Block],Running[Block],Trial,CardIMG1[Trial],CardIMG2[Trial],CardIMG3[Trial],CardIMG4[Trial],CardStim[Trial],Category,CorrectAnswer[Trial],FeedbackDisplay2.ACC,FeedbackDisplay2.CRESP,FeedbackDisplay2.DurationError,FeedbackDisplay2.OnsetDelay,FeedbackDisplay2.OnsetTime,FeedbackDisplay2.OnsetToOnsetTime,FeedbackDisplay2.RESP,FeedbackDisplay2.RT,FeedbackDisplay2.RTTime,List2,List2.Cycle,List2.Sample,List4,List4.Cycle,List4.Sample,PracticeList,PracticeList.Cycle,PracticeList.Sample,Procedure[Trial],Running[Trial],Slide5.ACC,Slide5.CRESP,Slide5.DurationError,Slide5.OnsetDelay,Slide5.OnsetTime,Slide5.OnsetToOnsetTime,Slide5.RESP,Slide5.RT,SubTrial,CardIMG1[SubTrial],CardIMG2[SubTrial],CardIMG3[SubTrial],CardIMG4[SubTrial],CardStim[SubTrial],ColorList,ColorList.Cycle,ColorList.Sample,ColorList2,ColorList2.Cycle,ColorList2.Sample,CorrectAnswer[SubTrial],NonPerseverativeError,NumberList,NumberList.Cycle,NumberList.Sample,NumberList1,NumberList1.Cycle,NumberList1.Sample,PerseverativeError,Procedure[SubTrial],Running[SubTrial],ShapeList,ShapeList.Cycle,ShapeList.Sample,ShapeList1,ShapeList1.Cycle,ShapeList1.Sample,Stimulus.ACC,Stimulus.CRESP,Stimulus.DurationError,Stimulus.OnsetDelay,Stimulus.OnsetTime,Stimulus.OnsetToOnsetTime,Stimulus.RESP,Stimulus.RT,TrialType
Wisconsin,1175,1,"<?xml version=""1.0""?>\n<Clock xmlns:dt=""urn:schemas-microsoft-com:datatypes""><Description dt:dt=""string"">E-Prime Primary Realtime Clock</Description><StartTime><Timestamp dt:dt=""int"">0</Timestamp><DateUtc dt:dt=""string"">2022-12-01T08:08:50Z</DateUtc></StartTime><FrequencyChanges><FrequencyChange><Frequency dt:dt=""r8"">2929853</Frequency><Timestamp dt:dt=""r8"">18764033771</Timestamp><Current dt:dt=""r8"">0</Current><DateUtc dt:dt=""string"">2022-12-01T08:08:50Z</DateUtc></FrequencyChange></FrequencyChanges></Clock>\n",Wisconsin-1175-1,59.957,1.0.0.541,1,1584726070,2.0.10.356,2.0.10.356,12-01-2022,12/1/2022 8:08:50 AM,16:08:50,2.0.10.252,1,1.0,1.0,1.0,,,,Practicebloc,List1,1,Button1.png,Button2.png,Button3.png,Button4.png,Greencircle3.png,顏色,z,0.0,,0.0,21.0,123637.0,0.0,,0.0,0.0,,,,,,,1.0,1.0,1.0,PracticeTrialProc,PracticeList,1.0,z,0.0,1.0,119835.0,0.0,z,3781.0,,,,,,,,,,,,,,,,,,,,,,,,,,,,,,,,,,,,,,
Wisconsin,1175,1,"<?xml version=""1.0""?>\n<Clock xmlns:dt=""urn:schemas-microsoft-com:datatypes""><Description dt:dt=""string"">E-Prime Primary Realtime Clock</Description><StartTime><Timestamp dt:dt=""int"">0</Timestamp><DateUtc dt:dt=""string"">2022-12-01T08:08:50Z</DateUtc></StartTime><FrequencyChanges><FrequencyChange><Frequency dt:dt=""r8"">2929853</Frequency><Timestamp dt:dt=""r8"">18764033771</Timestamp><Current dt:dt=""r8"">0</Current><DateUtc dt:dt=""string"">2022-12-01T08:08:50Z</DateUtc></FrequencyChange></FrequencyChanges></Clock>\n",Wisconsin-1175-1,59.957,1.0.0.541,1,1584726070,2.0.10.356,2.0.10.356,12-01-2022,12/1/2022 8:08:50 AM,16:08:50,2.0.10.252,1,1.0,1.0,1.0,,,,Practicebloc,List1,2,Button1.png,Button2.png,Button3.png,Button4.png,Redstar2.png,顏色,c,0.0,,0.0,21.0,131210.0,0.0,,0.0,0.0,,,,,,,2.0,1.0,2.0,PracticeTrialProc,PracticeList,0.0,c,0.0,0.0,126189.0,5021.0,,0.0,,,,,,,,,,,,,,,,,,,,,,,,,,,,,,,,,,,,,,
Wisconsin,1175,1,"<?xml version=""1.0""?>\n<Clock xmlns:dt=""urn:schemas-microsoft-com:datatypes""><Description dt:dt=""string"">E-Prime Primary Realtime Clock</Description><StartTime><Timestamp dt:dt=""int"">0</Timestamp><DateUtc dt:dt=""string"">2022-12-01T08:08:50Z</DateUtc></StartTime><FrequencyChanges><FrequencyChange><Frequency dt:dt=""r8"">2929853</Frequency><Timestamp dt:dt=""r8"">18764033771</Timestamp><Current dt:dt=""r8"">0</Current><DateUtc dt:dt=""string"">2022-12-01T08:08:50Z</DateUtc></FrequencyChange></FrequencyChanges></Clock>\n",Wisconsin-1175-1,59.957,1.0.0.541,1,1584726070,2.0.10.356,2.0.10.356,12-01-2022,12/1/2022 8:08:50 AM,16:08:50,2.0.10.252,1,1.0,1.0,1.0,,,,Practicebloc,List1,3,Button1.png,Button2.png,Button3.png,Button4.png,Bluetriangle1.png,形狀,x,0.0,,0.0,21.0,138782.0,0.0,,0.0,0.0,,,,,,,3.0,1.0,3.0,PracticeTrialProc,PracticeList,0.0,x,1.0,0.0,133761.0,5021.0,,0.0,,,,,,,,,,,,,,,,,,,,,,,,,,,,,,,,,,,,,,
Wisconsin,1175,1,"<?xml version=""1.0""?>\n<Clock xmlns:dt=""urn:schemas-microsoft-com:datatypes""><Description dt:dt=""string"">E-Prime Primary Realtime Clock</Description><StartTime><Timestamp dt:dt=""int"">0</Timestamp><DateUtc dt:dt=""string"">2022-12-01T08:08:50Z</DateUtc></StartTime><FrequencyChanges><FrequencyChange><Frequency dt:dt=""r8"">2929853</Frequency><Timestamp dt:dt=""r8"">18764033771</Timestamp><Current dt:dt=""r8"">0</Current><DateUtc dt:dt=""string"">2022-12-01T08:08:50Z</DateUtc></FrequencyChange></FrequencyChanges></Clock>\n",Wisconsin-1175-1,59.957,1.0.0.541,1,1584726070,2.0.10.356,2.0.10.356,12-01-2022,12/1/2022 8:08:50 AM,16:08:50,2.0.10.252,1,1.0,1.0,1.0,,,,Practicebloc,List1,4,Button1.png,Button2.png,Button3.png,Button4.png,greenstar2.png,形狀,v,0.0,,0.0,21.0,146004.0,0.0,,0.0,0.0,,,,,,,4.0,1.0,4.0,PracticeTrialProc,PracticeList,1.0,v,0.0,1.0,141334.0,0.0,v,4649.0,,,,,,,,,,,,,,,,,,,,,,,,,,,,,,,,,,,,,,
Wisconsin,1175,1,"<?xml version=""1.0""?>\n<Clock xmlns:dt=""urn:schemas-microsoft-com:datatypes""><Description dt:dt=""string"">E-Prime Primary Realtime Clock</Description><StartTime><Timestamp dt:dt=""int"">0</Timestamp><DateUtc dt:dt=""string"">2022-12-01T08:08:50Z</DateUtc></StartTime><FrequencyChanges><FrequencyChange><Frequency dt:dt=""r8"">2929853</Frequency><Timestamp dt:dt=""r8"">18764033771</Timestamp><Current dt:dt=""r8"">0</Current><DateUtc dt:dt=""string"">2022-12-01T08:08:50Z</DateUtc></FrequencyChange></FrequencyChanges></Clock>\n",Wisconsin-1175-1,59.957,1.0.0.541,1,1584726070,2.0.10.356,2.0.10.356,12-01-2022,12/1/2022 8:08:50 AM,16:08:50,2.0.10.252,1,1.0,1.0,1.0,,,,Practicebloc,List1,5,Button1.png,Button2.png,Button3.png,Button4.png,BlueCross4.png,數目,x,0.0,,0.0,19.0,152242.0,0.0,,0.0,0.0,,,,,,,5.0,1.0,5.0,PracticeTrialProc,PracticeList,1.0,x,0.0,1.0,148556.0,0.0,x,3666.0,,,,,,,,,,,,,,,,,,,,,,,,,,,,,,,,,,,,,,
Wisconsin,1175,1,"<?xml version=""1.0""?>\n<Clock xmlns:dt=""urn:schemas-microsoft-com:datatypes""><Description dt:dt=""string"">E-Prime Primary Realtime Clock</Description><StartTime><Timestamp dt:dt=""int"">0</Timestamp><DateUtc dt:dt=""string"">2022-12-01T08:08:50Z</DateUtc></StartTime><FrequencyChanges><FrequencyChange><Frequency dt:dt=""r8"">2929853</Frequency><Timestamp dt:dt=""r8"">18764033771</Timestamp><Current dt:dt=""r8"">0</Current><DateUtc dt:dt=""string"">2022-12-01T08:08:50Z</DateUtc></FrequencyChange></FrequencyChanges></Clock>\n",Wisconsin-1175-1,59.957,1.0.0.541,1,1584726070,2.0.10.356,2.0.10.356,12-01-2022,12/1/2022 8:08:50 AM,16:08:50,2.0.10.252,1,1.0,1.0,1.0,,,,Practicebloc,List1,6,Button1.png,Button2.png,Button3.png,Button4.png,yellowcircle2.png,數目,z,0.0,,0.0,21.0,159814.0,0.0,,0.0,0.0,,,,,,,6.0,1.0,6.0,PracticeTrialProc,PracticeList,0.0,z,0.0,0.0,154793.0,5021.0,,0.0,,,,,,,,,,,,,,,,,,,,,,,,,,,,,,,,,,,,,,
Wisconsin,1175,1,"<?xml version=""1.0""?>\n<Clock xmlns:dt=""urn:schemas-microsoft-com:datatypes""><Description dt:dt=""string"">E-Prime Primary Realtime Clock</Description><StartTime><Timestamp dt:dt=""int"">0</Timestamp><DateUtc dt:dt=""string"">2022-12-01T08:08:50Z</DateUtc></StartTime><FrequencyChanges><FrequencyChange><Frequency dt:dt=""r8"">2929853</Frequency><Timestamp dt:dt=""r8"">18764033771</Timestamp><Current dt:dt=""r8"">0</Current><DateUtc dt:dt=""string"">2022-12-01T08:08:50Z</DateUtc></FrequencyChange></FrequencyChanges></Clock>\n",Wisconsin-1175-1,59.957,1.0.0.541,1,1584726070,2.0.10.356,2.0.10.356,12-01-2022,12/1/2022 8:08:50 AM,16:08:50,2.0.10.252,2,,,,2.0,1.0,1.0,BlockProc2,List3,1,,,,,,,,,,,,,,,,,,,,3.0,1.0,1.0,,,,ShapeProc2,List4,,,,,,,,,1.0,Button1.png,Button2.png,Button3.png,Button4.png,Yellowstar2.png,,,,,,,v,1.0,,,,,,,0.0,TrialProc,ShapeList1,,,,9.0,1.0,1.0,0.0,v,0.0,1.0,164267.0,0.0,x,8738.0,Shape
Wisconsin,1175,1,"<?xml version=""1.0""?>\n<Clock xmlns:dt=""urn:schemas-microsoft-com:datatypes""><Description dt:dt=""string"">E-Prime Primary Realtime Clock</Description><StartTime><Timestamp dt:dt=""int"">0</Timestamp><DateUtc dt:dt=""string"">2022-12-01T08:08:50Z</DateUtc></StartTime><FrequencyChanges><FrequencyChange><Frequency dt:dt=""r8"">2929853</Frequency><Timestamp dt:dt=""r8"">18764033771</Timestamp><Current dt:dt=""r8"">0</Current><DateUtc dt:dt=""string"">2022-12-01T08:08:50Z</DateUtc></FrequencyChange></FrequencyChanges></Clock>\n",Wisconsin-1175-1,59.957,1.0.0.541,1,1584726070,2.0.10.356,2.0.10.356,12-01-2022,12/1/2022 8:08:50 AM,16:08:50,2.0.10.252,2,,,,2.0,1.0,1.0,BlockProc2,List3,1,,,,,,,,,,,,,,,,,,,,3.0,1.0,1.0,,,,ShapeProc2,List4,,,,,,,,,2.0,Button1.png,Button2.png,Button3.png,Button4.png,Bluetriangle2.png,,,,,,,x,0.0,,,,,,,0.0,TrialProc,ShapeList1,,,,2.0,1.0,2.0,1.0,x,0.0,1.0,175542.0,0.0,x,6407.0,Shape
Wisconsin,1175,1,"<?xml version=""1.0""?>\n<Clock xmlns:dt=""urn:schemas-microsoft-com:datatypes""><Description dt:dt=""string"">E-Prime Primary Realtime Clock</Description><StartTime><Timestamp dt:dt=""int"">0</Timestamp><DateUtc dt:dt=""string"">2022-12-01T08:08:50Z</DateUtc></StartTime><FrequencyChanges><FrequencyChange><Frequency dt:dt=""r8"">2929853</Frequency><Timestamp dt:dt=""r8"">18764033771</Timestamp><Current dt:dt=""r8"">0</Current><DateUtc dt:dt=""string"">2022-12-01T08:08:50Z</DateUtc></FrequencyChange></FrequencyChanges></Clock>\n",Wisconsin-1175-1,59.957,1.0.0.541,1,1584726070,2.0.10.356,2.0.10.356,12-01-2022,12/1/2022 8:08:50 AM,16:08:50,2.0.10.252,2,,,,2.0,1.0,1.0,BlockProc2,List3,1,,,,,,,,,,,,,,,,,,,,3.0,1.0,1.0,,,,ShapeProc2,List4,,,,,,,,,3.0,Button1.png,Button2.png,Button3.png,Button4.png,redcircle1.png,,,,,,,z,0.0,,,,,,,0.0,TrialProc,ShapeList1,,,,4.0,1.0,3.0,1.0,z,0.0,1.0,184482.0,0.0,z,8090.0,Shape
Wisconsin,1175,1,"<?xml version=""1.0""?>\n<Clock xmlns:dt=""urn:schemas-microsoft-com:datatypes""><Description dt:dt=""string"">E-Prime Primary Realtime Clock</Description><StartTime><Timestamp dt:dt=""int"">0</Timestamp><DateUtc dt:dt=""string"">2022-12-01T08:08:50Z</DateUtc></StartTime><FrequencyChanges><FrequencyChange><Frequency dt:dt=""r8"">2929853</Frequency><Timestamp dt:dt=""r8"">18764033771</Timestamp><Current dt:dt=""r8"">0</Current><DateUtc dt:dt=""string"">2022-12-01T08:08:50Z</DateUtc></FrequencyChange></FrequencyChanges></Clock>\n",Wisconsin-1175-1,59.957,1.0.0.541,1,1584726070,2.0.10.356,2.0.10.356,12-01-2022,12/1/2022 8:08:50 AM,16:08:50,2.0.10.252,2,,,,2.0,1.0,1.0,BlockProc2,List3,1,,,,,,,,,,,,,,,,,,,,3.0,1.0,1.0,,,,ShapeProc2,List4,,,,,,,,,4.0,Button1.png,Button2.png,Button3.png,Button4.png,Redcross2.png,,,,,,,c,0.0,,,,,,,0.0,TrialProc,ShapeList1,,,,5.0,1.0,4.0,1.0,c,0.0,1.0,195106.0,0.0,c,7929.0,Shape
Wisconsin,1175,1,"<?xml version=""1.0""?>\n<Clock xmlns:dt=""urn:schemas-microsoft-com:datatypes""><Description dt:dt=""string"">E-Prime Primary Realtime Clock</Description><StartTime><Timestamp dt:dt=""int"">0</Timestamp><DateUtc dt:dt=""string"">2022-12-01T08:08:50Z</DateUtc></StartTime><FrequencyChanges><FrequencyChange><Frequency dt:dt=""r8"">2929853</Frequency><Timestamp dt:dt=""r8"">18764033771</Timestamp><Current dt:dt=""r8"">0</Current><DateUtc dt:dt=""string"">2022-12-01T08:08:50Z</DateUtc></FrequencyChange></FrequencyChanges></Clock>\n",Wisconsin-1175-1,59.957,1.0.0.541,1,1584726070,2.0.10.356,2.0.10.356,12-01-2022,12/1/2022 8:08:50 AM,16:08:50,2.0.10.252,2,,,,2.0,1.0,1.0,BlockProc2,List3,1,,,,,,,,,,,,,,,,,,,,3.0,1.0,1.0,,,,ShapeProc2,List4,,,,,,,,,5.0,Button1.png,Button2.png,Button3.png,Button4.png,Yellowtriangle1.png,,,,,,,x,0.0,,,,,,,0.0,TrialProc,ShapeList1,,,,10.0,1.0,5.0,1.0,x,0.0,0.0,205580.0,0.0,x,7391.0,Shape
Wisconsin,1175,1,"<?xml version=""1.0""?>\n<Clock xmlns:dt=""urn:schemas-microsoft-com:datatypes""><Description dt:dt=""string"">E-Prime Primary Realtime Clock</Description><StartTime><Timestamp dt:dt=""int"">0</Timestamp><DateUtc dt:dt=""string"">2022-12-01T08:08:50Z</DateUtc></StartTime><FrequencyChanges><FrequencyChange><Frequency dt:dt=""r8"">2929853</Frequency><Timestamp dt:dt=""r8"">18764033771</Timestamp><Current dt:dt=""r8"">0</Current><DateUtc dt:dt=""string"">2022-12-01T08:08:50Z</DateUtc></FrequencyChange></FrequencyChanges></Clock>\n",Wisconsin-1175-1,59.957,1.0.0.541,1,1584726070,2.0.10.356,2.0.10.356,12-01-2022,12/1/2022 8:08:50 AM,16:08:50,2.0.10.252,2,,,,2.0,1.0,1.0,BlockProc2,List3,1,,,,,,,,,,,,,,,,,,,,3.0,1.0,1.0,,,,ShapeProc2,List4,,,,,,,,,6.0,Button1.png,Button2.png,Button3.png,Button4.png,yellowcross4.png,,,,,,,c,1.0,,,,,,,0.0,TrialProc,ShapeList1,,,,8.0,1.0,6.0,0.0,c,0.0,1.0,215504.0,10041.0,,0.0,Shape
Wisconsin,1175,1,"<?xml version=""1.0""?>\n<Clock xmlns:dt=""urn:schemas-microsoft-com:datatypes""><Description dt:dt=""string"">E-Prime Primary Realtime Clock</Description><StartTime><Timestamp dt:dt=""int"">0</Timestamp><DateUtc dt:dt=""string"">2022-12-01T08:08:50Z</DateUtc></StartTime><FrequencyChanges><FrequencyChange><Frequency dt:dt=""r8"">2929853</Frequency><Timestamp dt:dt=""r8"">18764033771</Timestamp><Current dt:dt=""r8"">0</Current><DateUtc dt:dt=""string"">2022-12-01T08:08:50Z</DateUtc></FrequencyChange></FrequencyChanges></Clock>\n",Wisconsin-1175-1,59.957,1.0.0.541,1,1584726070,2.0.10.356,2.0.10.356,12-01-2022,12/1/2022 8:08:50 AM,16:08:50,2.0.10.252,2,,,,2.0,1.0,1.0,BlockProc2,List3,1,,,,,,,,,,,,,,,,,,,,3.0,1.0,1.0,,,,ShapeProc2,List4,,,,,,,,,7.0,Button1.png,Button2.png,Button3.png,Button4.png,Redstar3.png,,,,,,,v,1.0,,,,,,,0.0,TrialProc,ShapeList1,,,,6.0,1.0,7.0,0.0,v,0.0,0.0,228063.0,10008.0,,0.0,Shape
Wisconsin,1175,1,"<?xml version=""1.0""?>\n<Clock xmlns:dt=""urn:schemas-microsoft-com:datatypes""><Description dt:dt=""string"">E-Prime Primary Realtime Clock</Description><StartTime><Timestamp dt:dt=""int"">0</Timestamp><DateUtc dt:dt=""string"">2022-12-01T08:08:50Z</DateUtc></StartTime><FrequencyChanges><FrequencyChange><Frequency dt:dt=""r8"">2929853</Frequency><Timestamp dt:dt=""r8"">18764033771</Timestamp><Current dt:dt=""r8"">0</Current><DateUtc dt:dt=""string"">2022-12-01T08:08:50Z</DateUtc></FrequencyChange></FrequencyChanges></Clock>\n",Wisconsin-1175-1,59.957,1.0.0.541,1,1584726070,2.0.10.356,2.0.10.356,12-01-2022,12/1/2022 8:08:50 AM,16:08:50,2.0.10.252,2,,,,2.0,1.0,1.0,BlockProc2,List3,1,,,,,,,,,,,,,,,,,,,,3.0,1.0,1.0,,,,ShapeProc2,List4,,,,,,,,,8.0,Button1.png,Button2.png,Button3.png,Button4.png,Redtriangle3.png,,,,,,,x,0.0,,,,,,,0.0,TrialProc,ShapeList1,,,,7.0,1.0,8.0,1.0,x,0.0,1.0,240589.0,0.0,x,6172.0,Shape
Wisconsin,1175,1,"<?xml version=""1.0""?>\n<Clock xmlns:dt=""urn:schemas-microsoft-com:datatypes""><Description dt:dt=""string"">E-Prime Primary Realtime Clock</Description><StartTime><Timestamp dt:dt=""int"">0</Timestamp><DateUtc dt:dt=""string"">2022-12-01T08:08:50Z</DateUtc></StartTime><FrequencyChanges><FrequencyChange><Frequency dt:dt=""r8"">2929853</Frequency><Timestamp dt:dt=""r8"">18764033771</Timestamp><Current dt:dt=""r8"">0</Current><DateUtc dt:dt=""string"">2022-12-01T08:08:50Z</DateUtc></FrequencyChange></FrequencyChanges></Clock>\n",Wisconsin-1175-1,59.957,1.0.0.541,1,1584726070,2.0.10.356,2.0.10.356,12-01-2022,12/1/2022 8:08:50 AM,16:08:50,2.0.10.252,2,,,,2.0,1.0,1.0,BlockProc2,List3,1,,,,,,,,,,,,,,,,,,,,3.0,1.0,1.0,,,,ShapeProc2,List4,,,,,,,,,9.0,Button1.png,Button2.png,Button3.png,Button4.png,Bluecircle3.png,,,,,,,z,0.0,,,,,,,0.0,TrialProc,ShapeList1,,,,1.0,1.0,9.0,1.0,z,0.0,0.0,249295.0,0.0,z,5226.0,Shape
Wisconsin,1175,1,"<?xml version=""1.0""?>\n<Clock xmlns:dt=""urn:schemas-microsoft-com:datatypes""><Description dt:dt=""string"">E-Prime Primary Realtime Clock</Description><StartTime><Timestamp dt:dt=""int"">0</Timestamp><DateUtc dt:dt=""string"">2022-12-01T08:08:50Z</DateUtc></StartTime><FrequencyChanges><FrequencyChange><Frequency dt:dt=""r8"">2929853</Frequency><Timestamp dt:dt=""r8"">18764033771</Timestamp><Current dt:dt=""r8"">0</Current><DateUtc dt:dt=""string"">2022-12-01T08:08:50Z</DateUtc></FrequencyChange></FrequencyChanges></Clock>\n",Wisconsin-1175-1,59.957,1.0.0.541,1,1584726070,2.0.10.356,2.0.10.356,12-01-2022,12/1/2022 8:08:50 AM,16:08:50,2.0.10.252,2,,,,2.0,1.0,1.0,BlockProc2,List3,1,,,,,,,,,,,,,,,,,,,,3.0,1.0,1.0,,,,ShapeProc2,List4,,,,,,,,,10.0,Button1.png,Button2.png,Button3.png,Button4.png,Greenstar3.png,,,,,,,v,0.0,,,,,,,0.0,TrialProc,ShapeList1,,,,3.0,1.0,10.0,1.0,v,0.0,1.0,257051.0,0.0,v,3933.0,Shape
Wisconsin,1175,1,"<?xml version=""1.0""?>\n<Clock xmlns:dt=""urn:schemas-microsoft-com:datatypes""><Description dt:dt=""string"">E-Prime Primary Realtime Clock</Description><StartTime><Timestamp dt:dt=""int"">0</Timestamp><DateUtc dt:dt=""string"">2022-12-01T08:08:50Z</DateUtc></StartTime><FrequencyChanges><FrequencyChange><Frequency dt:dt=""r8"">2929853</Frequency><Timestamp dt:dt=""r8"">18764033771</Timestamp><Current dt:dt=""r8"">0</Current><DateUtc dt:dt=""string"">2022-12-01T08:08:50Z</DateUtc></FrequencyChange></FrequencyChanges></Clock>\n",Wisconsin-1175-1,59.957,1.0.0.541,1,1584726070,2.0.10.356,2.0.10.356,12-01-2022,12/1/2022 8:08:50 AM,16:08:50,2.0.10.252,2,,,,2.0,1.0,1.0,BlockProc2,List3,2,,,,,,,,,,,,,,,,,,,,2.0,1.0,2.0,,,,NumberProc2,List4,,,,,,,,,1.0,Button1.png,Button2.png,Button3.png,Button4.png,Greencross2.png,,,,,,,z,0.0,,,,4.0,1.0,1.0,0.0,TrialProc,NumberList1,,,,,,,1.0,z,0.0,0.0,263522.0,0.0,z,5734.0,number
Wisconsin,1175,1,"<?xml version=""1.0""?>\n<Clock xmlns:dt=""urn:schemas-microsoft-com:datatypes""><Description dt:dt=""string"">E-Prime Primary Realtime Clock</Description><StartTime><Timestamp dt:dt=""int"">0</Timestamp><DateUtc dt:dt=""string"">2022-12-01T08:08:50Z</DateUtc></StartTime><FrequencyChanges><FrequencyChange><Frequency dt:dt=""r8"">2929853</Frequency><Timestamp dt:dt=""r8"">18764033771</Timestamp><Current dt:dt=""r8"">0</Current><DateUtc dt:dt=""string"">2022-12-01T08:08:50Z</DateUtc></FrequencyChange></FrequencyChanges></Clock>\n",Wisconsin-1175-1,59.957,1.0.0.541,1,1584726070,2.0.10.356,2.0.10.356,12-01-2022,12/1/2022 8:08:50 AM,16:08:50,2.0.10.252,2,,,,2.0,1.0,1.0,BlockProc2,List3,2,,,,,,,,,,,,,,,,,,,,2.0,1.0,2.0,,,,NumberProc2,List4,,,,,,,,,2.0,Button1.png,Button2.png,Button3.png,Button4.png,Yellowcross2.png,,,,,,,z,0.0,,,,9.0,1.0,2.0,0.0,TrialProc,NumberList1,,,,,,,1.0,z,0.0,1.0,271795.0,0.0,z,3844.0,number
Wisconsin,1175,1,"<?xml version=""1.0""?>\n<Clock xmlns:dt=""urn:schemas-microsoft-com:datatypes""><Description dt:dt=""string"">E-Prime Primary Realtime Clock</Description><StartTime><Timestamp dt:dt=""int"">0</Timestamp><DateUtc dt:dt=""string"">2022-12-01T08:08:50Z</DateUtc></StartTime><FrequencyChanges><FrequencyChange><Frequency dt:dt=""r8"">2929853</Frequency><Timestamp dt:dt=""r8"">18764033771</Timestamp><Current dt:dt=""r8"">0</Current><DateUtc dt:dt=""string"">2022-12-01T08:08:50Z</DateUtc></FrequencyChange></FrequencyChanges></Clock>\n",Wisconsin-1175-1,59.957,1.0.0.541,1,1584726070,2.0.10.356,2.0.10.356,12-01-2022,12/1/2022 8:08:50 AM,16:08:50,2.0.10.252,2,,,,2.0,1.0,1.0,BlockProc2,List3,2,,,,,,,,,,,,,,,,,,,,2.0,1.0,2.0,,,,NumberProc2,List4,,,,,,,,,3.0,Button1.png,Button2.png,Button3.png,Button4.png,yellowcircle4.png,,,,,,,x,0.0,,,,8.0,1.0,3.0,0.0,TrialProc,NumberList1,,,,,,,1.0,x,0.0,1.0,278183.0,0.0,x,9200.0,number
Wisconsin,1175,1,"<?xml version=""1.0""?>\n<Clock xmlns:dt=""urn:schemas-microsoft-com:datatypes""><Description dt:dt=""string"">E-Prime Primary Realtime Clock</Description><StartTime><Timestamp dt:dt=""int"">0</Timestamp><DateUtc dt:dt=""string"">2022-12-01T08:08:50Z</DateUtc></StartTime><FrequencyChanges><FrequencyChange><Frequency dt:dt=""r8"">2929853</Frequency><Timestamp dt:dt=""r8"">18764033771</Timestamp><Current dt:dt=""r8"">0</Current><DateUtc dt:dt=""string"">2022-12-01T08:08:50Z</DateUtc></FrequencyChange></FrequencyChanges></Clock>\n",Wisconsin-1175-1,59.957,1.0.0.541,1,1584726070,2.0.10.356,2.0.10.356,12-01-2022,12/1/2022 8:08:50 AM,16:08:50,2.0.10.252,2,,,,2.0,1.0,1.0,BlockProc2,List3,2,,,,,,,,,,,,,,,,,,,,2.0,1.0,2.0,,,,NumberProc2,List4,,,,,,,,,4.0,Button1.png,Button2.png,Button3.png,Button4.png,Greenstar1.png,,,,,,,v,0.0,,,,5.0,1.0,4.0,0.0,TrialProc,NumberList1,,,,,,,1.0,v,0.0,1.0,289925.0,0.0,v,3617.0,number
Wisconsin,1175,1,"<?xml version=""1.0""?>\n<Clock xmlns:dt=""urn:schemas-microsoft-com:datatypes""><Description dt:dt=""string"">E-Prime Primary Realtime Clock</Description><StartTime><Timestamp dt:dt=""int"">0</Timestamp><DateUtc dt:dt=""string"">2022-12-01T08:08:50Z</DateUtc></StartTime><FrequencyChanges><FrequencyChange><Frequency dt:dt=""r8"">2929853</Frequency><Timestamp dt:dt=""r8"">18764033771</Timestamp><Current dt:dt=""r8"">0</Current><DateUtc dt:dt=""string"">2022-12-01T08:08:50Z</DateUtc></FrequencyChange></FrequencyChanges></Clock>\n",Wisconsin-1175-1,59.957,1.0.0.541,1,1584726070,2.0.10.356,2.0.10.356,12-01-2022,12/1/2022 8:08:50 AM,16:08:50,2.0.10.252,2,,,,2.0,1.0,1.0,BlockProc2,List3,2,,,,,,,,,,,,,,,,,,,,2.0,1.0,2.0,,,,NumberProc2,List4,,,,,,,,,5.0,Button1.png,Button2.png,Button3.png,Button4.png,Yellowtriangle2.png,,,,,,,z,1.0,,,,10.0,1.0,5.0,0.0,TrialProc,NumberList1,,,,,,,0.0,z,0.0,0.0,296079.0,0.0,x,6487.0,number
Wisconsin,1175,1,"<?xml version=""1.0""?>\n<Clock xmlns:dt=""urn:schemas-microsoft-com:datatypes""><Description dt:dt=""string"">E-Prime Primary Realtime Clock</Description><StartTime><Timestamp dt:dt=""int"">0</Timestamp><DateUtc dt:dt=""string"">2022-12-01T08:08:50Z</DateUtc></StartTime><FrequencyChanges><FrequencyChange><Frequency dt:dt=""r8"">2929853</Frequency><Timestamp dt:dt=""r8"">18764033771</Timestamp><Current dt:dt=""r8"">0</Current><DateUtc dt:dt=""string"">2022-12-01T08:08:50Z</DateUtc></FrequencyChange></FrequencyChanges></Clock>\n",Wisconsin-1175-1,59.957,1.0.0.541,1,1584726070,2.0.10.356,2.0.10.356,12-01-2022,12/1/2022 8:08:50 AM,16:08:50,2.0.10.252,2,,,,2.0,1.0,1.0,BlockProc2,List3,2,,,,,,,,,,,,,,,,,,,,2.0,1.0,2.0,,,,NumberProc2,List4,,,,,,,,,6.0,Button1.png,Button2.png,Button3.png,Button4.png,Bluecross3.png,,,,,,,c,0.0,,,,1.0,1.0,6.0,0.0,TrialProc,NumberList1,,,,,,,1.0,c,0.0,1.0,305103.0,0.0,c,5718.0,number
Wisconsin,1175,1,"<?xml version=""1.0""?>\n<Clock xmlns:dt=""urn:schemas-microsoft-com:datatypes""><Description dt:dt=""string"">E-Prime Primary Realtime Clock</Description><StartTime><Timestamp dt:dt=""int"">0</Timestamp><DateUtc dt:dt=""string"">2022-12-01T08:08:50Z</DateUtc></StartTime><FrequencyChanges><FrequencyChange><Frequency dt:dt=""r8"">2929853</Frequency><Timestamp dt:dt=""r8"">18764033771</Timestamp><Current dt:dt=""r8"">0</Current><DateUtc dt:dt=""string"">2022-12-01T08:08:50Z</DateUtc></FrequencyChange></FrequencyChanges></Clock>\n",Wisconsin-1175-1,59.957,1.0.0.541,1,1584726070,2.0.10.356,2.0.10.356,12-01-2022,12/1/2022 8:08:50 AM,16:08:50,2.0.10.252,2,,,,2.0,1.0,1.0,BlockProc2,List3,2,,,,,,,,,,,,,,,,,,,,2.0,1.0,2.0,,,,NumberProc2,List4,,,,,,,,,7.0,Button1.png,Button2.png,Button3.png,Button4.png,Redstar1.png,,,,,,,v,1.0,,,,6.0,1.0,7.0,0.0,TrialProc,NumberList1,,,,,,,0.0,v,0.0,1.0,313359.0,0.0,z,4518.0,number
Wisconsin,1175,1,"<?xml version=""1.0""?>\n<Clock xmlns:dt=""urn:schemas-microsoft-com:datatypes""><Description dt:dt=""string"">E-Prime Primary Realtime Clock</Description><StartTime><Timestamp dt:dt=""int"">0</Timestamp><DateUtc dt:dt=""string"">2022-12-01T08:08:50Z</DateUtc></StartTime><FrequencyChanges><FrequencyChange><Frequency dt:dt=""r8"">2929853</Frequency><Timestamp dt:dt=""r8"">18764033771</Timestamp><Current dt:dt=""r8"">0</Current><DateUtc dt:dt=""string"">2022-12-01T08:08:50Z</DateUtc></FrequencyChange></FrequencyChanges></Clock>\n",Wisconsin-1175-1,59.957,1.0.0.541,1,1584726070,2.0.10.356,2.0.10.356,12-01-2022,12/1/2022 8:08:50 AM,16:08:50,2.0.10.252,2,,,,2.0,1.0,1.0,BlockProc2,List3,2,,,,,,,,,,,,,,,,,,,,2.0,1.0,2.0,,,,NumberProc2,List4,,,,,,,,,8.0,Button1.png,Button2.png,Button3.png,Button4.png,Bluetriangle4.png,,,,,,,x,0.0,,,,3.0,1.0,8.0,0.0,TrialProc,NumberList1,,,,,,,1.0,x,0.0,1.0,320414.0,0.0,x,7334.0,number
Wisconsin,1175,1,"<?xml version=""1.0""?>\n<Clock xmlns:dt=""urn:schemas-microsoft-com:datatypes""><Description dt:dt=""string"">E-Prime Primary Realtime Clock</Description><StartTime><Timestamp dt:dt=""int"">0</Timestamp><DateUtc dt:dt=""string"">2022-12-01T08:08:50Z</DateUtc></StartTime><FrequencyChanges><FrequencyChange><Frequency dt:dt=""r8"">2929853</Frequency><Timestamp dt:dt=""r8"">18764033771</Timestamp><Current dt:dt=""r8"">0</Current><DateUtc dt:dt=""string"">2022-12-01T08:08:50Z</DateUtc></FrequencyChange></FrequencyChanges></Clock>\n",Wisconsin-1175-1,59.957,1.0.0.541,1,1584726070,2.0.10.356,2.0.10.356,12-01-2022,12/1/2022 8:08:50 AM,16:08:50,2.0.10.252,2,,,,2.0,1.0,1.0,BlockProc2,List3,2,,,,,,,,,,,,,,,,,,,,2.0,1.0,2.0,,,,NumberProc2,List4,,,,,,,,,9.0,Button1.png,Button2.png,Button3.png,Button4.png,Redtriangle2.png,,,,,,,z,0.0,,,,7.0,1.0,9.0,0.0,TrialProc,NumberList1,,,,,,,1.0,z,0.0,1.0,330288.0,0.0,z,6548.0,number
Wisconsin,1175,1,"<?xml version=""1.0""?>\n<Clock xmlns:dt=""urn:schemas-microsoft-com:datatypes""><Description dt:dt=""string"">E-Prime Primary Realtime Clock</Description><StartTime><Timestamp dt:dt=""int"">0</Timestamp><DateUtc dt:dt=""string"">2022-12-01T08:08:50Z</DateUtc></StartTime><FrequencyChanges><FrequencyChange><Frequency dt:dt=""r8"">2929853</Frequency><Timestamp dt:dt=""r8"">18764033771</Timestamp><Current dt:dt=""r8"">0</Current><DateUtc dt:dt=""string"">2022-12-01T08:08:50Z</DateUtc></FrequencyChange></FrequencyChanges></Clock>\n",Wisconsin-1175-1,59.957,1.0.0.541,1,1584726070,2.0.10.356,2.0.10.356,12-01-2022,12/1/2022 8:08:50 AM,16:08:50,2.0.10.252,2,,,,2.0,1.0,1.0,BlockProc2,List3,2,,,,,,,,,,,,,,,,,,,,2.0,1.0,2.0,,,,NumberProc2,List4,,,,,,,,,10.0,Button1.png,Button2.png,Button3.png,Button4.png,Bluestar4.png,,,,,,,x,0.0,,,,2.0,1.0,10.0,0.0,TrialProc,NumberList1,,,,,,,1.0,x,0.0,1.0,339378.0,0.0,x,8513.0,number
Wisconsin,1175,1,"<?xml version=""1.0""?>\n<Clock xmlns:dt=""urn:schemas-microsoft-com:datatypes""><Description dt:dt=""string"">E-Prime Primary Realtime Clock</Description><StartTime><Timestamp dt:dt=""int"">0</Timestamp><DateUtc dt:dt=""string"">2022-12-01T08:08:50Z</DateUtc></StartTime><FrequencyChanges><FrequencyChange><Frequency dt:dt=""r8"">2929853</Frequency><Timestamp dt:dt=""r8"">18764033771</Timestamp><Current dt:dt=""r8"">0</Current><DateUtc dt:dt=""string"">2022-12-01T08:08:50Z</DateUtc></FrequencyChange></FrequencyChanges></Clock>\n",Wisconsin-1175-1,59.957,1.0.0.541,1,1584726070,2.0.10.356,2.0.10.356,12-01-2022,12/1/2022 8:08:50 AM,16:08:50,2.0.10.252,2,,,,2.0,1.0,1.0,BlockProc2,List3,3,,,,,,,,,,,,,,,,,,,,1.0,1.0,3.0,,,,ColorProc2,List4,,,,,,,,,1.0,BUTTON1.png,BUTTON2.PNG,BUTTON3.png,BUTTON4.png,Redcircle2.png,,,,7.0,1.0,1.0,c,1.0,,,,,,,0.0,TrialProc,ColorList2,,,,,,,0.0,c,0.0,1.0,350436.0,10024.0,,0.0,color
Wisconsin,1175,1,"<?xml version=""1.0""?>\n<Clock xmlns:dt=""urn:schemas-microsoft-com:datatypes""><Description dt:dt=""string"">E-Prime Primary Realtime Clock</Description><StartTime><Timestamp dt:dt=""int"">0</Timestamp><DateUtc dt:dt=""string"">2022-12-01T08:08:50Z</DateUtc></StartTime><FrequencyChanges><FrequencyChange><Frequency dt:dt=""r8"">2929853</Frequency><Timestamp dt:dt=""r8"">18764033771</Timestamp><Current dt:dt=""r8"">0</Current><DateUtc dt:dt=""string"">2022-12-01T08:08:50Z</DateUtc></FrequencyChange></FrequencyChanges></Clock>\n",Wisconsin-1175-1,59.957,1.0.0.541,1,1584726070,2.0.10.356,2.0.10.356,12-01-2022,12/1/2022 8:08:50 AM,16:08:50,2.0.10.252,2,,,,2.0,1.0,1.0,BlockProc2,List3,3,,,,,,,,,,,,,,,,,,,,1.0,1.0,3.0,,,,ColorProc2,List4,,,,,,,,,2.0,BUTTON1.png,BUTTON2.PNG,BUTTON3.png,BUTTON4.png,redstar4.png,,,,8.0,1.0,2.0,c,0.0,,,,,,,0.0,TrialProc,ColorList2,,,,,,,1.0,c,0.0,1.0,362978.0,0.0,c,7056.0,color
Wisconsin,1175,1,"<?xml version=""1.0""?>\n<Clock xmlns:dt=""urn:schemas-microsoft-com:datatypes""><Description dt:dt=""string"">E-Prime Primary Realtime Clock</Description><StartTime><Timestamp dt:dt=""int"">0</Timestamp><DateUtc dt:dt=""string"">2022-12-01T08:08:50Z</DateUtc></StartTime><FrequencyChanges><FrequencyChange><Frequency dt:dt=""r8"">2929853</Frequency><Timestamp dt:dt=""r8"">18764033771</Timestamp><Current dt:dt=""r8"">0</Current><DateUtc dt:dt=""string"">2022-12-01T08:08:50Z</DateUtc></FrequencyChange></FrequencyChanges></Clock>\n",Wisconsin-1175-1,59.957,1.0.0.541,1,1584726070,2.0.10.356,2.0.10.356,12-01-2022,12/1/2022 8:08:50 AM,16:08:50,2.0.10.252,2,,,,2.0,1.0,1.0,BlockProc2,List3,3,,,,,,,,,,,,,,,,,,,,1.0,1.0,3.0,,,,ColorProc2,List4,,,,,,,,,3.0,BUTTON1.png,BUTTON2.PNG,BUTTON3.png,BUTTON4.png,yellowcircle2.png,,,,9.0,1.0,3.0,x,0.0,,,,,,,0.0,TrialProc,ColorList2,,,,,,,1.0,x,0.0,0.0,372568.0,0.0,x,7274.0,color
Wisconsin,1175,1,"<?xml version=""1.0""?>\n<Clock xmlns:dt=""urn:schemas-microsoft-com:datatypes""><Description dt:dt=""string"">E-Prime Primary Realtime Clock</Description><StartTime><Timestamp dt:dt=""int"">0</Timestamp><DateUtc dt:dt=""string"">2022-12-01T08:08:50Z</DateUtc></StartTime><FrequencyChanges><FrequencyChange><Frequency dt:dt=""r8"">2929853</Frequency><Timestamp dt:dt=""r8"">18764033771</Timestamp><Current dt:dt=""r8"">0</Current><DateUtc dt:dt=""string"">2022-12-01T08:08:50Z</DateUtc></FrequencyChange></FrequencyChanges></Clock>\n",Wisconsin-1175-1,59.957,1.0.0.541,1,1584726070,2.0.10.356,2.0.10.356,12-01-2022,12/1/2022 8:08:50 AM,16:08:50,2.0.10.252,2,,,,2.0,1.0,1.0,BlockProc2,List3,3,,,,,,,,,,,,,,,,,,,,1.0,1.0,3.0,,,,ColorProc2,List4,,,,,,,,,4.0,BUTTON1.png,BUTTON2.PNG,BUTTON3.png,BUTTON4.png,bluecross1.png,,,,1.0,1.0,4.0,v,0.0,,,,,,,0.0,TrialProc,ColorList2,,,,,,,1.0,v,1.0,0.0,382375.0,0.0,v,8874.0,color
Wisconsin,1175,1,"<?xml version=""1.0""?>\n<Clock xmlns:dt=""urn:schemas-microsoft-com:datatypes""><Description dt:dt=""string"">E-Prime Primary Realtime Clock</Description><StartTime><Timestamp dt:dt=""int"">0</Timestamp><DateUtc dt:dt=""string"">2022-12-01T08:08:50Z</DateUtc></StartTime><FrequencyChanges><FrequencyChange><Frequency dt:dt=""r8"">2929853</Frequency><Timestamp dt:dt=""r8"">18764033771</Timestamp><Current dt:dt=""r8"">0</Current><DateUtc dt:dt=""string"">2022-12-01T08:08:50Z</DateUtc></FrequencyChange></FrequencyChanges></Clock>\n",Wisconsin-1175-1,59.957,1.0.0.541,1,1584726070,2.0.10.356,2.0.10.356,12-01-2022,12/1/2022 8:08:50 AM,16:08:50,2.0.10.252,2,,,,2.0,1.0,1.0,BlockProc2,List3,3,,,,,,,,,,,,,,,,,,,,1.0,1.0,3.0,,,,ColorProc2,List4,,,,,,,,,5.0,BUTTON1.png,BUTTON2.PNG,BUTTON3.png,BUTTON4.png,greentriangle2.png,,,,6.0,1.0,5.0,z,1.0,,,,,,,0.0,TrialProc,ColorList2,,,,,,,0.0,z,0.0,1.0,393784.0,10024.0,,0.0,color
Wisconsin,1175,1,"<?xml version=""1.0""?>\n<Clock xmlns:dt=""urn:schemas-microsoft-com:datatypes""><Description dt:dt=""string"">E-Prime Primary Realtime Clock</Description><StartTime><Timestamp dt:dt=""int"">0</Timestamp><DateUtc dt:dt=""string"">2022-12-01T08:08:50Z</DateUtc></StartTime><FrequencyChanges><FrequencyChange><Frequency dt:dt=""r8"">2929853</Frequency><Timestamp dt:dt=""r8"">18764033771</Timestamp><Current dt:dt=""r8"">0</Current><DateUtc dt:dt=""string"">2022-12-01T08:08:50Z</DateUtc></FrequencyChange></FrequencyChanges></Clock>\n",Wisconsin-1175-1,59.957,1.0.0.541,1,1584726070,2.0.10.356,2.0.10.356,12-01-2022,12/1/2022 8:08:50 AM,16:08:50,2.0.10.252,2,,,,2.0,1.0,1.0,BlockProc2,List3,3,,,,,,,,,,,,,,,,,,,,1.0,1.0,3.0,,,,ColorProc2,List4,,,,,,,,,6.0,BUTTON1.png,BUTTON2.PNG,BUTTON3.png,BUTTON4.png,greencross4.png,,,,4.0,1.0,6.0,z,0.0,,,,,,,0.0,TrialProc,ColorList2,,,,,,,1.0,z,0.0,1.0,406326.0,0.0,z,9641.0,color
Wisconsin,1175,1,"<?xml version=""1.0""?>\n<Clock xmlns:dt=""urn:schemas-microsoft-com:datatypes""><Description dt:dt=""string"">E-Prime Primary Realtime Clock</Description><StartTime><Timestamp dt:dt=""int"">0</Timestamp><DateUtc dt:dt=""string"">2022-12-01T08:08:50Z</DateUtc></StartTime><FrequencyChanges><FrequencyChange><Frequency dt:dt=""r8"">2929853</Frequency><Timestamp dt:dt=""r8"">18764033771</Timestamp><Current dt:dt=""r8"">0</Current><DateUtc dt:dt=""string"">2022-12-01T08:08:50Z</DateUtc></FrequencyChange></FrequencyChanges></Clock>\n",Wisconsin-1175-1,59.957,1.0.0.541,1,1584726070,2.0.10.356,2.0.10.356,12-01-2022,12/1/2022 8:08:50 AM,16:08:50,2.0.10.252,2,,,,2.0,1.0,1.0,BlockProc2,List3,3,,,,,,,,,,,,,,,,,,,,1.0,1.0,3.0,,,,ColorProc2,List4,,,,,,,,,7.0,BUTTON1.png,BUTTON2.PNG,BUTTON3.png,BUTTON4.png,bluestar3.png,,,,2.0,1.0,7.0,v,0.0,,,,,,,0.0,TrialProc,ColorList2,,,,,,,1.0,v,0.0,1.0,418502.0,0.0,v,7385.0,color
Wisconsin,1175,1,"<?xml version=""1.0""?>\n<Clock xmlns:dt=""urn:schemas-microsoft-com:datatypes""><Description dt:dt=""string"">E-Prime Primary Realtime Clock</Description><StartTime><Timestamp dt:dt=""int"">0</Timestamp><DateUtc dt:dt=""string"">2022-12-01T08:08:50Z</DateUtc></StartTime><FrequencyChanges><FrequencyChange><Frequency dt:dt=""r8"">2929853</Frequency><Timestamp dt:dt=""r8"">18764033771</Timestamp><Current dt:dt=""r8"">0</Current><DateUtc dt:dt=""string"">2022-12-01T08:08:50Z</DateUtc></FrequencyChange></FrequencyChanges></Clock>\n",Wisconsin-1175-1,59.957,1.0.0.541,1,1584726070,2.0.10.356,2.0.10.356,12-01-2022,12/1/2022 8:08:50 AM,16:08:50,2.0.10.252,2,,,,2.0,1.0,1.0,BlockProc2,List3,3,,,,,,,,,,,,,,,,,,,,1.0,1.0,3.0,,,,ColorProc2,List4,,,,,,,,,8.0,BUTTON1.png,BUTTON2.PNG,BUTTON3.png,BUTTON4.png,Greencircle1.png,,,,3.0,1.0,8.0,z,0.0,,,,,,,0.0,TrialProc,ColorList2,,,,,,,1.0,z,0.0,1.0,428426.0,0.0,z,3749.0,color
Wisconsin,1175,1,"<?xml version=""1.0""?>\n<Clock xmlns:dt=""urn:schemas-microsoft-com:datatypes""><Description dt:dt=""string"">E-Prime Primary Realtime Clock</Description><StartTime><Timestamp dt:dt=""int"">0</Timestamp><DateUtc dt:dt=""string"">2022-12-01T08:08:50Z</DateUtc></StartTime><FrequencyChanges><FrequencyChange><Frequency dt:dt=""r8"">2929853</Frequency><Timestamp dt:dt=""r8"">18764033771</Timestamp><Current dt:dt=""r8"">0</Current><DateUtc dt:dt=""string"">2022-12-01T08:08:50Z</DateUtc></FrequencyChange></FrequencyChanges></Clock>\n",Wisconsin-1175-1,59.957,1.0.0.541,1,1584726070,2.0.10.356,2.0.10.356,12-01-2022,12/1/2022 8:08:50 AM,16:08:50,2.0.10.252,2,,,,2.0,1.0,1.0,BlockProc2,List3,3,,,,,,,,,,,,,,,,,,,,1.0,1.0,3.0,,,,ColorProc2,List4,,,,,,,,,9.0,BUTTON1.png,BUTTON2.PNG,BUTTON3.png,BUTTON4.png,greenstar4.png,,,,5.0,1.0,9.0,z,0.0,,,,,,,0.0,TrialProc,ColorList2,,,,,,,1.0,z,1.0,0.0,434713.0,0.0,z,4501.0,color
Wisconsin,1175,1,"<?xml version=""1.0""?>\n<Clock xmlns:dt=""urn:schemas-microsoft-com:datatypes""><Description dt:dt=""string"">E-Prime Primary Realtime Clock</Description><StartTime><Timestamp dt:dt=""int"">0</Timestamp><DateUtc dt:dt=""string"">2022-12-01T08:08:50Z</DateUtc></StartTime><FrequencyChanges><FrequencyChange><Frequency dt:dt=""r8"">2929853</Frequency><Timestamp dt:dt=""r8"">18764033771</Timestamp><Current dt:dt=""r8"">0</Current><DateUtc dt:dt=""string"">2022-12-01T08:08:50Z</DateUtc></FrequencyChange></FrequencyChanges></Clock>\n",Wisconsin-1175-1,59.957,1.0.0.541,1,1584726070,2.0.10.356,2.0.10.356,12-01-2022,12/1/2022 8:08:50 AM,16:08:50,2.0.10.252,2,,,,2.0,1.0,1.0,BlockProc2,List3,3,,,,,,,,,,,,,,,,,,,,1.0,1.0,3.0,,,,ColorProc2,List4,,,,,,,,,10.0,BUTTON1.png,BUTTON2.PNG,BUTTON3.png,BUTTON4.png,yellowtriangle3.png,,,,10.0,1.0,10.0,x,1.0,,,,,,,0.0,TrialProc,ColorList2,,,,,,,0.0,x,0.0,1.0,441752.0,0.0,c,4870.0,color
Wisconsin,1175,1,"<?xml version=""1.0""?>\n<Clock xmlns:dt=""urn:schemas-microsoft-com:datatypes""><Description dt:dt=""string"">E-Prime Primary Realtime Clock</Description><StartTime><Timestamp dt:dt=""int"">0</Timestamp><DateUtc dt:dt=""string"">2022-12-01T08:08:50Z</DateUtc></StartTime><FrequencyChanges><FrequencyChange><Frequency dt:dt=""r8"">2929853</Frequency><Timestamp dt:dt=""r8"">18764033771</Timestamp><Current dt:dt=""r8"">0</Current><DateUtc dt:dt=""string"">2022-12-01T08:08:50Z</DateUtc></FrequencyChange></FrequencyChanges></Clock>\n",Wisconsin-1175-1,59.957,1.0.0.541,1,1584726070,2.0.10.356,2.0.10.356,12-01-2022,12/1/2022 8:08:50 AM,16:08:50,2.0.10.252,3,,,,1.0,1.0,2.0,BlockProc,List3,1,,,,,,,,,,,,,,,,,3.0,1.0,1.0,,,,,,,ShapeProc,List2,,,,,,,,,1.0,Button1.png,Button2.png,Button3.png,Button4.png,Greentriangle4.png,,,,,,,x,1.0,,,,,,,0.0,TrialProc,ShapeList,4.0,1.0,1.0,,,,0.0,x,0.0,0.0,449157.0,0.0,z,5000.0,Shape
Wisconsin,1175,1,"<?xml version=""1.0""?>\n<Clock xmlns:dt=""urn:schemas-microsoft-com:datatypes""><Description dt:dt=""string"">E-Prime Primary Realtime Clock</Description><StartTime><Timestamp dt:dt=""int"">0</Timestamp><DateUtc dt:dt=""string"">2022-12-01T08:08:50Z</DateUtc></StartTime><FrequencyChanges><FrequencyChange><Frequency dt:dt=""r8"">2929853</Frequency><Timestamp dt:dt=""r8"">18764033771</Timestamp><Current dt:dt=""r8"">0</Current><DateUtc dt:dt=""string"">2022-12-01T08:08:50Z</DateUtc></FrequencyChange></FrequencyChanges></Clock>\n",Wisconsin-1175-1,59.957,1.0.0.541,1,1584726070,2.0.10.356,2.0.10.356,12-01-2022,12/1/2022 8:08:50 AM,16:08:50,2.0.10.252,3,,,,1.0,1.0,2.0,BlockProc,List3,1,,,,,,,,,,,,,,,,,3.0,1.0,1.0,,,,,,,ShapeProc,List2,,,,,,,,,2.0,Button1.png,Button2.png,Button3.png,Button4.png,Yellowstar1.png,,,,,,,v,0.0,,,,,,,0.0,TrialProc,ShapeList,9.0,1.0,2.0,,,,1.0,v,0.0,1.0,456696.0,0.0,v,6949.0,Shape
Wisconsin,1175,1,"<?xml version=""1.0""?>\n<Clock xmlns:dt=""urn:schemas-microsoft-com:datatypes""><Description dt:dt=""string"">E-Prime Primary Realtime Clock</Description><StartTime><Timestamp dt:dt=""int"">0</Timestamp><DateUtc dt:dt=""string"">2022-12-01T08:08:50Z</DateUtc></StartTime><FrequencyChanges><FrequencyChange><Frequency dt:dt=""r8"">2929853</Frequency><Timestamp dt:dt=""r8"">18764033771</Timestamp><Current dt:dt=""r8"">0</Current><DateUtc dt:dt=""string"">2022-12-01T08:08:50Z</DateUtc></FrequencyChange></FrequencyChanges></Clock>\n",Wisconsin-1175-1,59.957,1.0.0.541,1,1584726070,2.0.10.356,2.0.10.356,12-01-2022,12/1/2022 8:08:50 AM,16:08:50,2.0.10.252,3,,,,1.0,1.0,2.0,BlockProc,List3,1,,,,,,,,,,,,,,,,,3.0,1.0,1.0,,,,,,,ShapeProc,List2,,,,,,,,,3.0,Button1.png,Button2.png,Button3.png,Button4.png,yellowcircle3.png,,,,,,,z,1.0,,,,,,,0.0,TrialProc,ShapeList,8.0,1.0,3.0,,,,0.0,z,0.0,0.0,466186.0,0.0,c,3426.0,Shape
Wisconsin,1175,1,"<?xml version=""1.0""?>\n<Clock xmlns:dt=""urn:schemas-microsoft-com:datatypes""><Description dt:dt=""string"">E-Prime Primary Realtime Clock</Description><StartTime><Timestamp dt:dt=""int"">0</Timestamp><DateUtc dt:dt=""string"">2022-12-01T08:08:50Z</DateUtc></StartTime><FrequencyChanges><FrequencyChange><Frequency dt:dt=""r8"">2929853</Frequency><Timestamp dt:dt=""r8"">18764033771</Timestamp><Current dt:dt=""r8"">0</Current><DateUtc dt:dt=""string"">2022-12-01T08:08:50Z</DateUtc></FrequencyChange></FrequencyChanges></Clock>\n",Wisconsin-1175-1,59.957,1.0.0.541,1,1584726070,2.0.10.356,2.0.10.356,12-01-2022,12/1/2022 8:08:50 AM,16:08:50,2.0.10.252,3,,,,1.0,1.0,2.0,BlockProc,List3,1,,,,,,,,,,,,,,,,,3.0,1.0,1.0,,,,,,,ShapeProc,List2,,,,,,,,,4.0,Button1.png,Button2.png,Button3.png,Button4.png,Yellowstar4.png,,,,,,,v,0.0,,,,,,,0.0,TrialProc,ShapeList,10.0,1.0,4.0,,,,1.0,v,0.0,1.0,472141.0,0.0,v,6047.0,Shape
Wisconsin,1175,1,"<?xml version=""1.0""?>\n<Clock xmlns:dt=""urn:schemas-microsoft-com:datatypes""><Description dt:dt=""string"">E-Prime Primary Realtime Clock</Description><StartTime><Timestamp dt:dt=""int"">0</Timestamp><DateUtc dt:dt=""string"">2022-12-01T08:08:50Z</DateUtc></StartTime><FrequencyChanges><FrequencyChange><Frequency dt:dt=""r8"">2929853</Frequency><Timestamp dt:dt=""r8"">18764033771</Timestamp><Current dt:dt=""r8"">0</Current><DateUtc dt:dt=""string"">2022-12-01T08:08:50Z</DateUtc></FrequencyChange></FrequencyChanges></Clock>\n",Wisconsin-1175-1,59.957,1.0.0.541,1,1584726070,2.0.10.356,2.0.10.356,12-01-2022,12/1/2022 8:08:50 AM,16:08:50,2.0.10.252,3,,,,1.0,1.0,2.0,BlockProc,List3,1,,,,,,,,,,,,,,,,,3.0,1.0,1.0,,,,,,,ShapeProc,List2,,,,,,,,,5.0,Button1.png,Button2.png,Button3.png,Button4.png,Redtriangle1.png,,,,,,,x,1.0,,,,,,,0.0,TrialProc,ShapeList,7.0,1.0,5.0,,,,0.0,x,0.0,1.0,480730.0,0.0,z,4258.0,Shape
Wisconsin,1175,1,"<?xml version=""1.0""?>\n<Clock xmlns:dt=""urn:schemas-microsoft-com:datatypes""><Description dt:dt=""string"">E-Prime Primary Realtime Clock</Description><StartTime><Timestamp dt:dt=""int"">0</Timestamp><DateUtc dt:dt=""string"">2022-12-01T08:08:50Z</DateUtc></StartTime><FrequencyChanges><FrequencyChange><Frequency dt:dt=""r8"">2929853</Frequency><Timestamp dt:dt=""r8"">18764033771</Timestamp><Current dt:dt=""r8"">0</Current><DateUtc dt:dt=""string"">2022-12-01T08:08:50Z</DateUtc></FrequencyChange></FrequencyChanges></Clock>\n",Wisconsin-1175-1,59.957,1.0.0.541,1,1584726070,2.0.10.356,2.0.10.356,12-01-2022,12/1/2022 8:08:50 AM,16:08:50,2.0.10.252,3,,,,1.0,1.0,2.0,BlockProc,List3,1,,,,,,,,,,,,,,,,,3.0,1.0,1.0,,,,,,,ShapeProc,List2,,,,,,,,,6.0,Button1.png,Button2.png,Button3.png,Button4.png,Bluecircle2.png,,,,,,,z,1.0,,,,,,,0.0,TrialProc,ShapeList,1.0,1.0,6.0,,,,0.0,z,1.0,0.0,487518.0,0.0,x,2317.0,Shape
Wisconsin,1175,1,"<?xml version=""1.0""?>\n<Clock xmlns:dt=""urn:schemas-microsoft-com:datatypes""><Description dt:dt=""string"">E-Prime Primary Realtime Clock</Description><StartTime><Timestamp dt:dt=""int"">0</Timestamp><DateUtc dt:dt=""string"">2022-12-01T08:08:50Z</DateUtc></StartTime><FrequencyChanges><FrequencyChange><Frequency dt:dt=""r8"">2929853</Frequency><Timestamp dt:dt=""r8"">18764033771</Timestamp><Current dt:dt=""r8"">0</Current><DateUtc dt:dt=""string"">2022-12-01T08:08:50Z</DateUtc></FrequencyChange></FrequencyChanges></Clock>\n",Wisconsin-1175-1,59.957,1.0.0.541,1,1584726070,2.0.10.356,2.0.10.356,12-01-2022,12/1/2022 8:08:50 AM,16:08:50,2.0.10.252,3,,,,1.0,1.0,2.0,BlockProc,List3,1,,,,,,,,,,,,,,,,,3.0,1.0,1.0,,,,,,,ShapeProc,List2,,,,,,,,,7.0,Button1.png,Button2.png,Button3.png,Button4.png,Redcross4.png,,,,,,,c,0.0,,,,,,,0.0,TrialProc,ShapeList,6.0,1.0,7.0,,,,1.0,c,0.0,1.0,492372.0,0.0,c,6615.0,Shape
Wisconsin,1175,1,"<?xml version=""1.0""?>\n<Clock xmlns:dt=""urn:schemas-microsoft-com:datatypes""><Description dt:dt=""string"">E-Prime Primary Realtime Clock</Description><StartTime><Timestamp dt:dt=""int"">0</Timestamp><DateUtc dt:dt=""string"">2022-12-01T08:08:50Z</DateUtc></StartTime><FrequencyChanges><FrequencyChange><Frequency dt:dt=""r8"">2929853</Frequency><Timestamp dt:dt=""r8"">18764033771</Timestamp><Current dt:dt=""r8"">0</Current><DateUtc dt:dt=""string"">2022-12-01T08:08:50Z</DateUtc></FrequencyChange></FrequencyChanges></Clock>\n",Wisconsin-1175-1,59.957,1.0.0.541,1,1584726070,2.0.10.356,2.0.10.356,12-01-2022,12/1/2022 8:08:50 AM,16:08:50,2.0.10.252,3,,,,1.0,1.0,2.0,BlockProc,List3,1,,,,,,,,,,,,,,,,,3.0,1.0,1.0,,,,,,,ShapeProc,List2,,,,,,,,,8.0,Button1.png,Button2.png,Button3.png,Button4.png,Greencross1.png,,,,,,,c,0.0,,,,,,,0.0,TrialProc,ShapeList,3.0,1.0,8.0,,,,1.0,c,0.0,1.0,501529.0,0.0,c,6961.0,Shape
Wisconsin,1175,1,"<?xml version=""1.0""?>\n<Clock xmlns:dt=""urn:schemas-microsoft-com:datatypes""><Description dt:dt=""string"">E-Prime Primary Realtime Clock</Description><StartTime><Timestamp dt:dt=""int"">0</Timestamp><DateUtc dt:dt=""string"">2022-12-01T08:08:50Z</DateUtc></StartTime><FrequencyChanges><FrequencyChange><Frequency dt:dt=""r8"">2929853</Frequency><Timestamp dt:dt=""r8"">18764033771</Timestamp><Current dt:dt=""r8"">0</Current><DateUtc dt:dt=""string"">2022-12-01T08:08:50Z</DateUtc></FrequencyChange></FrequencyChanges></Clock>\n",Wisconsin-1175-1,59.957,1.0.0.541,1,1584726070,2.0.10.356,2.0.10.356,12-01-2022,12/1/2022 8:08:50 AM,16:08:50,2.0.10.252,3,,,,1.0,1.0,2.0,BlockProc,List3,1,,,,,,,,,,,,,,,,,3.0,1.0,1.0,,,,,,,ShapeProc,List2,,,,,,,,,9.0,Button1.png,Button2.png,Button3.png,Button4.png,Redcross1.png,,,,,,,c,0.0,,,,,,,0.0,TrialProc,ShapeList,5.0,1.0,9.0,,,,1.0,c,0.0,1.0,511036.0,0.0,c,3998.0,Shape
Wisconsin,1175,1,"<?xml version=""1.0""?>\n<Clock xmlns:dt=""urn:schemas-microsoft-com:datatypes""><Description dt:dt=""string"">E-Prime Primary Realtime Clock</Description><StartTime><Timestamp dt:dt=""int"">0</Timestamp><DateUtc dt:dt=""string"">2022-12-01T08:08:50Z</DateUtc></StartTime><FrequencyChanges><FrequencyChange><Frequency dt:dt=""r8"">2929853</Frequency><Timestamp dt:dt=""r8"">18764033771</Timestamp><Current dt:dt=""r8"">0</Current><DateUtc dt:dt=""string"">2022-12-01T08:08:50Z</DateUtc></FrequencyChange></FrequencyChanges></Clock>\n",Wisconsin-1175-1,59.957,1.0.0.541,1,1584726070,2.0.10.356,2.0.10.356,12-01-2022,12/1/2022 8:08:50 AM,16:08:50,2.0.10.252,3,,,,1.0,1.0,2.0,BlockProc,List3,1,,,,,,,,,,,,,,,,,3.0,1.0,1.0,,,,,,,ShapeProc,List2,,,,,,,,,10.0,Button1.png,Button2.png,Button3.png,Button4.png,Bluecross4.png,,,,,,,c,0.0,,,,,,,0.0,TrialProc,ShapeList,2.0,1.0,10.0,,,,1.0,c,0.0,1.0,517574.0,0.0,c,3923.0,Shape
Wisconsin,1175,1,"<?xml version=""1.0""?>\n<Clock xmlns:dt=""urn:schemas-microsoft-com:datatypes""><Description dt:dt=""string"">E-Prime Primary Realtime Clock</Description><StartTime><Timestamp dt:dt=""int"">0</Timestamp><DateUtc dt:dt=""string"">2022-12-01T08:08:50Z</DateUtc></StartTime><FrequencyChanges><FrequencyChange><Frequency dt:dt=""r8"">2929853</Frequency><Timestamp dt:dt=""r8"">18764033771</Timestamp><Current dt:dt=""r8"">0</Current><DateUtc dt:dt=""string"">2022-12-01T08:08:50Z</DateUtc></FrequencyChange></FrequencyChanges></Clock>\n",Wisconsin-1175-1,59.957,1.0.0.541,1,1584726070,2.0.10.356,2.0.10.356,12-01-2022,12/1/2022 8:08:50 AM,16:08:50,2.0.10.252,3,,,,1.0,1.0,2.0,BlockProc,List3,2,,,,,,,,,,,,,,,,,2.0,1.0,2.0,,,,,,,NumberProc,List2,,,,,,,,,1.0,Button1.png,Button2.png,Button3.png,Button4.png,Bluetriangle1.png,,,,,,,v,1.0,3.0,1.0,1.0,,,,0.0,TrialProc,NumberList,,,,,,,0.0,v,0.0,0.0,524028.0,0.0,x,8605.0,number
Wisconsin,1175,1,"<?xml version=""1.0""?>\n<Clock xmlns:dt=""urn:schemas-microsoft-com:datatypes""><Description dt:dt=""string"">E-Prime Primary Realtime Clock</Description><StartTime><Timestamp dt:dt=""int"">0</Timestamp><DateUtc dt:dt=""string"">2022-12-01T08:08:50Z</DateUtc></StartTime><FrequencyChanges><FrequencyChange><Frequency dt:dt=""r8"">2929853</Frequency><Timestamp dt:dt=""r8"">18764033771</Timestamp><Current dt:dt=""r8"">0</Current><DateUtc dt:dt=""string"">2022-12-01T08:08:50Z</DateUtc></FrequencyChange></FrequencyChanges></Clock>\n",Wisconsin-1175-1,59.957,1.0.0.541,1,1584726070,2.0.10.356,2.0.10.356,12-01-2022,12/1/2022 8:08:50 AM,16:08:50,2.0.10.252,3,,,,1.0,1.0,2.0,BlockProc,List3,2,,,,,,,,,,,,,,,,,2.0,1.0,2.0,,,,,,,NumberProc,List2,,,,,,,,,2.0,Button1.png,Button2.png,Button3.png,Button4.png,Yellowcross3.png,,,,,,,c,1.0,10.0,1.0,2.0,,,,0.0,TrialProc,NumberList,,,,,,,0.0,c,0.0,1.0,535170.0,10024.0,,0.0,number
Wisconsin,1175,1,"<?xml version=""1.0""?>\n<Clock xmlns:dt=""urn:schemas-microsoft-com:datatypes""><Description dt:dt=""string"">E-Prime Primary Realtime Clock</Description><StartTime><Timestamp dt:dt=""int"">0</Timestamp><DateUtc dt:dt=""string"">2022-12-01T08:08:50Z</DateUtc></StartTime><FrequencyChanges><FrequencyChange><Frequency dt:dt=""r8"">2929853</Frequency><Timestamp dt:dt=""r8"">18764033771</Timestamp><Current dt:dt=""r8"">0</Current><DateUtc dt:dt=""string"">2022-12-01T08:08:50Z</DateUtc></FrequencyChange></FrequencyChanges></Clock>\n",Wisconsin-1175-1,59.957,1.0.0.541,1,1584726070,2.0.10.356,2.0.10.356,12-01-2022,12/1/2022 8:08:50 AM,16:08:50,2.0.10.252,3,,,,1.0,1.0,2.0,BlockProc,List3,2,,,,,,,,,,,,,,,,,2.0,1.0,2.0,,,,,,,NumberProc,List2,,,,,,,,,3.0,Button1.png,Button2.png,Button3.png,Button4.png,Redstar2.png,,,,,,,z,1.0,7.0,1.0,3.0,,,,0.0,TrialProc,NumberList,,,,,,,0.0,z,0.0,1.0,547712.0,0.0,x,7560.0,number
Wisconsin,1175,1,"<?xml version=""1.0""?>\n<Clock xmlns:dt=""urn:schemas-microsoft-com:datatypes""><Description dt:dt=""string"">E-Prime Primary Realtime Clock</Description><StartTime><Timestamp dt:dt=""int"">0</Timestamp><DateUtc dt:dt=""string"">2022-12-01T08:08:50Z</DateUtc></StartTime><FrequencyChanges><FrequencyChange><Frequency dt:dt=""r8"">2929853</Frequency><Timestamp dt:dt=""r8"">18764033771</Timestamp><Current dt:dt=""r8"">0</Current><DateUtc dt:dt=""string"">2022-12-01T08:08:50Z</DateUtc></FrequencyChange></FrequencyChanges></Clock>\n",Wisconsin-1175-1,59.957,1.0.0.541,1,1584726070,2.0.10.356,2.0.10.356,12-01-2022,12/1/2022 8:08:50 AM,16:08:50,2.0.10.252,3,,,,1.0,1.0,2.0,BlockProc,List3,2,,,,,,,,,,,,,,,,,2.0,1.0,2.0,,,,,,,NumberProc,List2,,,,,,,,,4.0,Button1.png,Button2.png,Button3.png,Button4.png,Bluestar2.png,,,,,,,z,1.0,2.0,1.0,4.0,,,,0.0,TrialProc,NumberList,,,,,,,0.0,z,0.0,1.0,557803.0,0.0,v,7564.0,number
Wisconsin,1175,1,"<?xml version=""1.0""?>\n<Clock xmlns:dt=""urn:schemas-microsoft-com:datatypes""><Description dt:dt=""string"">E-Prime Primary Realtime Clock</Description><StartTime><Timestamp dt:dt=""int"">0</Timestamp><DateUtc dt:dt=""string"">2022-12-01T08:08:50Z</DateUtc></StartTime><FrequencyChanges><FrequencyChange><Frequency dt:dt=""r8"">2929853</Frequency><Timestamp dt:dt=""r8"">18764033771</Timestamp><Current dt:dt=""r8"">0</Current><DateUtc dt:dt=""string"">2022-12-01T08:08:50Z</DateUtc></FrequencyChange></FrequencyChanges></Clock>\n",Wisconsin-1175-1,59.957,1.0.0.541,1,1584726070,2.0.10.356,2.0.10.356,12-01-2022,12/1/2022 8:08:50 AM,16:08:50,2.0.10.252,3,,,,1.0,1.0,2.0,BlockProc,List3,2,,,,,,,,,,,,,,,,,2.0,1.0,2.0,,,,,,,NumberProc,List2,,,,,,,,,5.0,Button1.png,Button2.png,Button3.png,Button4.png,Greencircle4.png,,,,,,,x,1.0,4.0,1.0,5.0,,,,0.0,TrialProc,NumberList,,,,,,,0.0,x,0.0,1.0,567910.0,10007.0,,0.0,number
Wisconsin,1175,1,"<?xml version=""1.0""?>\n<Clock xmlns:dt=""urn:schemas-microsoft-com:datatypes""><Description dt:dt=""string"">E-Prime Primary Realtime Clock</Description><StartTime><Timestamp dt:dt=""int"">0</Timestamp><DateUtc dt:dt=""string"">2022-12-01T08:08:50Z</DateUtc></StartTime><FrequencyChanges><FrequencyChange><Frequency dt:dt=""r8"">2929853</Frequency><Timestamp dt:dt=""r8"">18764033771</Timestamp><Current dt:dt=""r8"">0</Current><DateUtc dt:dt=""string"">2022-12-01T08:08:50Z</DateUtc></FrequencyChange></FrequencyChanges></Clock>\n",Wisconsin-1175-1,59.957,1.0.0.541,1,1584726070,2.0.10.356,2.0.10.356,12-01-2022,12/1/2022 8:08:50 AM,16:08:50,2.0.10.252,3,,,,1.0,1.0,2.0,BlockProc,List3,2,,,,,,,,,,,,,,,,,2.0,1.0,2.0,,,,,,,NumberProc,List2,,,,,,,,,6.0,Button1.png,Button2.png,Button3.png,Button4.png,Redtriangle4.png,,,,,,,x,0.0,8.0,1.0,6.0,,,,0.0,TrialProc,NumberList,,,,,,,1.0,x,0.0,1.0,580436.0,0.0,x,9010.0,number
Wisconsin,1175,1,"<?xml version=""1.0""?>\n<Clock xmlns:dt=""urn:schemas-microsoft-com:datatypes""><Description dt:dt=""string"">E-Prime Primary Realtime Clock</Description><StartTime><Timestamp dt:dt=""int"">0</Timestamp><DateUtc dt:dt=""string"">2022-12-01T08:08:50Z</DateUtc></StartTime><FrequencyChanges><FrequencyChange><Frequency dt:dt=""r8"">2929853</Frequency><Timestamp dt:dt=""r8"">18764033771</Timestamp><Current dt:dt=""r8"">0</Current><DateUtc dt:dt=""string"">2022-12-01T08:08:50Z</DateUtc></FrequencyChange></FrequencyChanges></Clock>\n",Wisconsin-1175-1,59.957,1.0.0.541,1,1584726070,2.0.10.356,2.0.10.356,12-01-2022,12/1/2022 8:08:50 AM,16:08:50,2.0.10.252,3,,,,1.0,1.0,2.0,BlockProc,List3,2,,,,,,,,,,,,,,,,,2.0,1.0,2.0,,,,,,,NumberProc,List2,,,,,,,,,7.0,Button1.png,Button2.png,Button3.png,Button4.png,Bluecircle4.png,,,,,,,x,1.0,1.0,1.0,7.0,,,,0.0,TrialProc,NumberList,,,,,,,0.0,x,0.0,1.0,591978.0,0.0,z,7899.0,number
Wisconsin,1175,1,"<?xml version=""1.0""?>\n<Clock xmlns:dt=""urn:schemas-microsoft-com:datatypes""><Description dt:dt=""string"">E-Prime Primary Realtime Clock</Description><StartTime><Timestamp dt:dt=""int"">0</Timestamp><DateUtc dt:dt=""string"">2022-12-01T08:08:50Z</DateUtc></StartTime><FrequencyChanges><FrequencyChange><Frequency dt:dt=""r8"">2929853</Frequency><Timestamp dt:dt=""r8"">18764033771</Timestamp><Current dt:dt=""r8"">0</Current><DateUtc dt:dt=""string"">2022-12-01T08:08:50Z</DateUtc></FrequencyChange></FrequencyChanges></Clock>\n",Wisconsin-1175-1,59.957,1.0.0.541,1,1584726070,2.0.10.356,2.0.10.356,12-01-2022,12/1/2022 8:08:50 AM,16:08:50,2.0.10.252,3,,,,1.0,1.0,2.0,BlockProc,List3,2,,,,,,,,,,,,,,,,,2.0,1.0,2.0,,,,,,,NumberProc,List2,,,,,,,,,8.0,Button1.png,Button2.png,Button3.png,Button4.png,Redcircle4.png,,,,,,,x,1.0,6.0,1.0,8.0,,,,0.0,TrialProc,NumberList,,,,,,,0.0,x,0.0,1.0,602419.0,10024.0,,0.0,number
Wisconsin,1175,1,"<?xml version=""1.0""?>\n<Clock xmlns:dt=""urn:schemas-microsoft-com:datatypes""><Description dt:dt=""string"">E-Prime Primary Realtime Clock</Description><StartTime><Timestamp dt:dt=""int"">0</Timestamp><DateUtc dt:dt=""string"">2022-12-01T08:08:50Z</DateUtc></StartTime><FrequencyChanges><FrequencyChange><Frequency dt:dt=""r8"">2929853</Frequency><Timestamp dt:dt=""r8"">18764033771</Timestamp><Current dt:dt=""r8"">0</Current><DateUtc dt:dt=""string"">2022-12-01T08:08:50Z</DateUtc></FrequencyChange></FrequencyChanges></Clock>\n",Wisconsin-1175-1,59.957,1.0.0.541,1,1584726070,2.0.10.356,2.0.10.356,12-01-2022,12/1/2022 8:08:50 AM,16:08:50,2.0.10.252,3,,,,1.0,1.0,2.0,BlockProc,List3,2,,,,,,,,,,,,,,,,,2.0,1.0,2.0,,,,,,,NumberProc,List2,,,,,,,,,9.0,Button1.png,Button2.png,Button3.png,Button4.png,Greencross3.png,,,,,,,c,0.0,5.0,1.0,9.0,,,,0.0,TrialProc,NumberList,,,,,,,1.0,c,0.0,1.0,614961.0,0.0,c,5219.0,number
Wisconsin,1175,1,"<?xml version=""1.0""?>\n<Clock xmlns:dt=""urn:schemas-microsoft-com:datatypes""><Description dt:dt=""string"">E-Prime Primary Realtime Clock</Description><StartTime><Timestamp dt:dt=""int"">0</Timestamp><DateUtc dt:dt=""string"">2022-12-01T08:08:50Z</DateUtc></StartTime><FrequencyChanges><FrequencyChange><Frequency dt:dt=""r8"">2929853</Frequency><Timestamp dt:dt=""r8"">18764033771</Timestamp><Current dt:dt=""r8"">0</Current><DateUtc dt:dt=""string"">2022-12-01T08:08:50Z</DateUtc></FrequencyChange></FrequencyChanges></Clock>\n",Wisconsin-1175-1,59.957,1.0.0.541,1,1584726070,2.0.10.356,2.0.10.356,12-01-2022,12/1/2022 8:08:50 AM,16:08:50,2.0.10.252,3,,,,1.0,1.0,2.0,BlockProc,List3,2,,,,,,,,,,,,,,,,,2.0,1.0,2.0,,,,,,,NumberProc,List2,,,,,,,,,10.0,Button1.png,Button2.png,Button3.png,Button4.png,Yellowcross1.png,,,,,,,v,0.0,9.0,1.0,10.0,,,,0.0,TrialProc,NumberList,,,,,,,1.0,v,0.0,1.0,622717.0,0.0,v,6838.0,number
Wisconsin,1175,1,"<?xml version=""1.0""?>\n<Clock xmlns:dt=""urn:schemas-microsoft-com:datatypes""><Description dt:dt=""string"">E-Prime Primary Realtime Clock</Description><StartTime><Timestamp dt:dt=""int"">0</Timestamp><DateUtc dt:dt=""string"">2022-12-01T08:08:50Z</DateUtc></StartTime><FrequencyChanges><FrequencyChange><Frequency dt:dt=""r8"">2929853</Frequency><Timestamp dt:dt=""r8"">18764033771</Timestamp><Current dt:dt=""r8"">0</Current><DateUtc dt:dt=""string"">2022-12-01T08:08:50Z</DateUtc></FrequencyChange></FrequencyChanges></Clock>\n",Wisconsin-1175-1,59.957,1.0.0.541,1,1584726070,2.0.10.356,2.0.10.356,12-01-2022,12/1/2022 8:08:50 AM,16:08:50,2.0.10.252,3,,,,1.0,1.0,2.0,BlockProc,List3,3,,,,,,,,,,,,,,,,,1.0,1.0,3.0,,,,,,,ColorProc,List2,,,,,,,,,1.0,BUTTON1.png,BUTTON2.PNG,BUTTON3.png,BUTTON4.png,bluecircle1.png,1.0,1.0,1.0,,,,v,0.0,,,,,,,0.0,TrialProc,ColorList,,,,,,,1.0,v,0.0,1.0,632090.0,0.0,v,3001.0,color
Wisconsin,1175,1,"<?xml version=""1.0""?>\n<Clock xmlns:dt=""urn:schemas-microsoft-com:datatypes""><Description dt:dt=""string"">E-Prime Primary Realtime Clock</Description><StartTime><Timestamp dt:dt=""int"">0</Timestamp><DateUtc dt:dt=""string"">2022-12-01T08:08:50Z</DateUtc></StartTime><FrequencyChanges><FrequencyChange><Frequency dt:dt=""r8"">2929853</Frequency><Timestamp dt:dt=""r8"">18764033771</Timestamp><Current dt:dt=""r8"">0</Current><DateUtc dt:dt=""string"">2022-12-01T08:08:50Z</DateUtc></FrequencyChange></FrequencyChanges></Clock>\n",Wisconsin-1175-1,59.957,1.0.0.541,1,1584726070,2.0.10.356,2.0.10.356,12-01-2022,12/1/2022 8:08:50 AM,16:08:50,2.0.10.252,3,,,,1.0,1.0,2.0,BlockProc,List3,3,,,,,,,,,,,,,,,,,1.0,1.0,3.0,,,,,,,ColorProc,List2,,,,,,,,,2.0,BUTTON1.png,BUTTON2.PNG,BUTTON3.png,BUTTON4.png,greencircle3.png,4.0,1.0,2.0,,,,z,1.0,,,,,,,0.0,TrialProc,ColorList,,,,,,,0.0,z,1.0,0.0,637627.0,0.0,c,5672.0,color
Wisconsin,1175,1,"<?xml version=""1.0""?>\n<Clock xmlns:dt=""urn:schemas-microsoft-com:datatypes""><Description dt:dt=""string"">E-Prime Primary Realtime Clock</Description><StartTime><Timestamp dt:dt=""int"">0</Timestamp><DateUtc dt:dt=""string"">2022-12-01T08:08:50Z</DateUtc></StartTime><FrequencyChanges><FrequencyChange><Frequency dt:dt=""r8"">2929853</Frequency><Timestamp dt:dt=""r8"">18764033771</Timestamp><Current dt:dt=""r8"">0</Current><DateUtc dt:dt=""string"">2022-12-01T08:08:50Z</DateUtc></FrequencyChange></FrequencyChanges></Clock>\n",Wisconsin-1175-1,59.957,1.0.0.541,1,1584726070,2.0.10.356,2.0.10.356,12-01-2022,12/1/2022 8:08:50 AM,16:08:50,2.0.10.252,3,,,,1.0,1.0,2.0,BlockProc,List3,3,,,,,,,,,,,,,,,,,1.0,1.0,3.0,,,,,,,ColorProc,List2,,,,,,,,,3.0,BUTTON1.png,BUTTON2.PNG,BUTTON3.png,BUTTON4.png,greenstar2.png,5.0,1.0,3.0,,,,z,0.0,,,,,,,0.0,TrialProc,ColorList,,,,,,,1.0,z,0.0,0.0,645833.0,0.0,z,8265.0,color
Wisconsin,1175,1,"<?xml version=""1.0""?>\n<Clock xmlns:dt=""urn:schemas-microsoft-com:datatypes""><Description dt:dt=""string"">E-Prime Primary Realtime Clock</Description><StartTime><Timestamp dt:dt=""int"">0</Timestamp><DateUtc dt:dt=""string"">2022-12-01T08:08:50Z</DateUtc></StartTime><FrequencyChanges><FrequencyChange><Frequency dt:dt=""r8"">2929853</Frequency><Timestamp dt:dt=""r8"">18764033771</Timestamp><Current dt:dt=""r8"">0</Current><DateUtc dt:dt=""string"">2022-12-01T08:08:50Z</DateUtc></FrequencyChange></FrequencyChanges></Clock>\n",Wisconsin-1175-1,59.957,1.0.0.541,1,1584726070,2.0.10.356,2.0.10.356,12-01-2022,12/1/2022 8:08:50 AM,16:08:50,2.0.10.252,3,,,,1.0,1.0,2.0,BlockProc,List3,3,,,,,,,,,,,,,,,,,1.0,1.0,3.0,,,,,,,ColorProc,List2,,,,,,,,,4.0,BUTTON1.png,BUTTON2.PNG,BUTTON3.png,BUTTON4.png,redcircle3.png,8.0,1.0,4.0,,,,c,0.0,,,,,,,0.0,TrialProc,ColorList,,,,,,,1.0,c,0.0,1.0,656625.0,0.0,c,5761.0,color
Wisconsin,1175,1,"<?xml version=""1.0""?>\n<Clock xmlns:dt=""urn:schemas-microsoft-com:datatypes""><Description dt:dt=""string"">E-Prime Primary Realtime Clock</Description><StartTime><Timestamp dt:dt=""int"">0</Timestamp><DateUtc dt:dt=""string"">2022-12-01T08:08:50Z</DateUtc></StartTime><FrequencyChanges><FrequencyChange><Frequency dt:dt=""r8"">2929853</Frequency><Timestamp dt:dt=""r8"">18764033771</Timestamp><Current dt:dt=""r8"">0</Current><DateUtc dt:dt=""string"">2022-12-01T08:08:50Z</DateUtc></FrequencyChange></FrequencyChanges></Clock>\n",Wisconsin-1175-1,59.957,1.0.0.541,1,1584726070,2.0.10.356,2.0.10.356,12-01-2022,12/1/2022 8:08:50 AM,16:08:50,2.0.10.252,3,,,,1.0,1.0,2.0,BlockProc,List3,3,,,,,,,,,,,,,,,,,1.0,1.0,3.0,,,,,,,ColorProc,List2,,,,,,,,,5.0,BUTTON1.png,BUTTON2.PNG,BUTTON3.png,BUTTON4.png,greentriangle1.png,6.0,1.0,5.0,,,,z,0.0,,,,,,,0.0,TrialProc,ColorList,,,,,,,1.0,z,0.0,1.0,664931.0,0.0,z,9006.0,color
Wisconsin,1175,1,"<?xml version=""1.0""?>\n<Clock xmlns:dt=""urn:schemas-microsoft-com:datatypes""><Description dt:dt=""string"">E-Prime Primary Realtime Clock</Description><StartTime><Timestamp dt:dt=""int"">0</Timestamp><DateUtc dt:dt=""string"">2022-12-01T08:08:50Z</DateUtc></StartTime><FrequencyChanges><FrequencyChange><Frequency dt:dt=""r8"">2929853</Frequency><Timestamp dt:dt=""r8"">18764033771</Timestamp><Current dt:dt=""r8"">0</Current><DateUtc dt:dt=""string"">2022-12-01T08:08:50Z</DateUtc></FrequencyChange></FrequencyChanges></Clock>\n",Wisconsin-1175-1,59.957,1.0.0.541,1,1584726070,2.0.10.356,2.0.10.356,12-01-2022,12/1/2022 8:08:50 AM,16:08:50,2.0.10.252,3,,,,1.0,1.0,2.0,BlockProc,List3,3,,,,,,,,,,,,,,,,,1.0,1.0,3.0,,,,,,,ColorProc,List2,,,,,,,,,6.0,BUTTON1.png,BUTTON2.PNG,BUTTON3.png,BUTTON4.png,greentriangle3.png,7.0,1.0,6.0,,,,z,0.0,,,,,,,0.0,TrialProc,ColorList,,,,,,,1.0,z,0.0,0.0,676472.0,0.0,z,7576.0,color
Wisconsin,1175,1,"<?xml version=""1.0""?>\n<Clock xmlns:dt=""urn:schemas-microsoft-com:datatypes""><Description dt:dt=""string"">E-Prime Primary Realtime Clock</Description><StartTime><Timestamp dt:dt=""int"">0</Timestamp><DateUtc dt:dt=""string"">2022-12-01T08:08:50Z</DateUtc></StartTime><FrequencyChanges><FrequencyChange><Frequency dt:dt=""r8"">2929853</Frequency><Timestamp dt:dt=""r8"">18764033771</Timestamp><Current dt:dt=""r8"">0</Current><DateUtc dt:dt=""string"">2022-12-01T08:08:50Z</DateUtc></FrequencyChange></FrequencyChanges></Clock>\n",Wisconsin-1175-1,59.957,1.0.0.541,1,1584726070,2.0.10.356,2.0.10.356,12-01-2022,12/1/2022 8:08:50 AM,16:08:50,2.0.10.252,3,,,,1.0,1.0,2.0,BlockProc,List3,3,,,,,,,,,,,,,,,,,1.0,1.0,3.0,,,,,,,ColorProc,List2,,,,,,,,,7.0,BUTTON1.png,BUTTON2.PNG,BUTTON3.png,BUTTON4.png,bluetriangle3.png,3.0,1.0,7.0,,,,v,1.0,,,,,,,0.0,TrialProc,ColorList,,,,,,,0.0,v,0.0,1.0,686613.0,0.0,c,6235.0,color
Wisconsin,1175,1,"<?xml version=""1.0""?>\n<Clock xmlns:dt=""urn:schemas-microsoft-com:datatypes""><Description dt:dt=""string"">E-Prime Primary Realtime Clock</Description><StartTime><Timestamp dt:dt=""int"">0</Timestamp><DateUtc dt:dt=""string"">2022-12-01T08:08:50Z</DateUtc></StartTime><FrequencyChanges><FrequencyChange><Frequency dt:dt=""r8"">2929853</Frequency><Timestamp dt:dt=""r8"">18764033771</Timestamp><Current dt:dt=""r8"">0</Current><DateUtc dt:dt=""string"">2022-12-01T08:08:50Z</DateUtc></FrequencyChange></FrequencyChanges></Clock>\n",Wisconsin-1175-1,59.957,1.0.0.541,1,1584726070,2.0.10.356,2.0.10.356,12-01-2022,12/1/2022 8:08:50 AM,16:08:50,2.0.10.252,3,,,,1.0,1.0,2.0,BlockProc,List3,3,,,,,,,,,,,,,,,,,1.0,1.0,3.0,,,,,,,ColorProc,List2,,,,,,,,,8.0,BUTTON1.png,BUTTON2.PNG,BUTTON3.png,BUTTON4.png,yellowcircle1.png,9.0,1.0,8.0,,,,x,0.0,,,,,,,0.0,TrialProc,ColorList,,,,,,,1.0,x,0.0,1.0,695386.0,0.0,x,6053.0,color
Wisconsin,1175,1,"<?xml version=""1.0""?>\n<Clock xmlns:dt=""urn:schemas-microsoft-com:datatypes""><Description dt:dt=""string"">E-Prime Primary Realtime Clock</Description><StartTime><Timestamp dt:dt=""int"">0</Timestamp><DateUtc dt:dt=""string"">2022-12-01T08:08:50Z</DateUtc></StartTime><FrequencyChanges><FrequencyChange><Frequency dt:dt=""r8"">2929853</Frequency><Timestamp dt:dt=""r8"">18764033771</Timestamp><Current dt:dt=""r8"">0</Current><DateUtc dt:dt=""string"">2022-12-01T08:08:50Z</DateUtc></FrequencyChange></FrequencyChanges></Clock>\n",Wisconsin-1175-1,59.957,1.0.0.541,1,1584726070,2.0.10.356,2.0.10.356,12-01-2022,12/1/2022 8:08:50 AM,16:08:50,2.0.10.252,3,,,,1.0,1.0,2.0,BlockProc,List3,3,,,,,,,,,,,,,,,,,1.0,1.0,3.0,,,,,,,ColorProc,List2,,,,,,,,,9.0,BUTTON1.png,BUTTON2.PNG,BUTTON3.png,BUTTON4.png,bluecross2.png,2.0,1.0,9.0,,,,v,0.0,,,,,,,0.0,TrialProc,ColorList,,,,,,,1.0,v,0.0,1.0,703976.0,0.0,v,4775.0,color
Wisconsin,1175,1,"<?xml version=""1.0""?>\n<Clock xmlns:dt=""urn:schemas-microsoft-com:datatypes""><Description dt:dt=""string"">E-Prime Primary Realtime Clock</Description><StartTime><Timestamp dt:dt=""int"">0</Timestamp><DateUtc dt:dt=""string"">2022-12-01T08:08:50Z</DateUtc></StartTime><FrequencyChanges><FrequencyChange><Frequency dt:dt=""r8"">2929853</Frequency><Timestamp dt:dt=""r8"">18764033771</Timestamp><Current dt:dt=""r8"">0</Current><DateUtc dt:dt=""string"">2022-12-01T08:08:50Z</DateUtc></FrequencyChange></FrequencyChanges></Clock>\n",Wisconsin-1175-1,59.957,1.0.0.541,1,1584726070,2.0.10.356,2.0.10.356,12-01-2022,12/1/2022 8:08:50 AM,16:08:50,2.0.10.252,3,,,,1.0,1.0,2.0,BlockProc,List3,3,,,,,,,,,,,,,,,,,1.0,1.0,3.0,,,,,,,ColorProc,List2,,,,,,,,,10.0,BUTTON1.png,BUTTON2.PNG,BUTTON3.png,BUTTON4.png,yellowstar3.png,10.0,1.0,10.0,,,,x,0.0,,,,,,,0.0,TrialProc,ColorList,,,,,,,1.0,x,0.0,1.0,711281.0,0.0,x,5038.0,color
