ExperimentName,Subject,Session,Clock.Information,DataFile.Basename,Display.RefreshRate,ExperimentVersion,Group,RandomSeed,RuntimeVersion,RuntimeVersionExpected,SessionDate,SessionStartDateTimeUtc,SessionTime,StudioVersion,Block,List1,List1.Cycle,List1.Sample,List3,List3.Cycle,List3.Sample,Procedure[Block],Running[Block],Trial,CardIMG1[Trial],CardIMG2[Trial],CardIMG3[Trial],CardIMG4[Trial],CardStim[Trial],Category,CorrectAnswer[Trial],FeedbackDisplay2.ACC,FeedbackDisplay2.CRESP,FeedbackDisplay2.DurationError,FeedbackDisplay2.OnsetDelay,FeedbackDisplay2.OnsetTime,FeedbackDisplay2.OnsetToOnsetTime,FeedbackDisplay2.RESP,FeedbackDisplay2.RT,FeedbackDisplay2.RTTime,List2,List2.Cycle,List2.Sample,List4,List4.Cycle,List4.Sample,PracticeList,PracticeList.Cycle,PracticeList.Sample,Procedure[Trial],Running[Trial],FeedbackDisplay2.ACC,FeedbackDisplay2.CRESP,FeedbackDisplay2.DurationError,FeedbackDisplay2.OnsetDelay,FeedbackDisplay2.OnsetTime,FeedbackDisplay2.OnsetToOnsetTime,FeedbackDisplay2.RESP,FeedbackDisplay2.RT,SubTrial,CardIMG1[SubTrial],CardIMG2[SubTrial],CardIMG3[SubTrial],CardIMG4[SubTrial],CardStim[SubTrial],ColorList,ColorList.Cycle,ColorList.Sample,ColorList2,ColorList2.Cycle,ColorList2.Sample,CorrectAnswer[SubTrial],NonPerseverativeError,NumberList,NumberList.Cycle,NumberList.Sample,NumberList1,NumberList1.Cycle,NumberList1.Sample,PerseverativeError,Procedure[SubTrial],Running[SubTrial],ShapeList,ShapeList.Cycle,ShapeList.Sample,ShapeList1,ShapeList1.Cycle,ShapeList1.Sample,Stimulus.ACC,Stimulus.CRESP,Stimulus.DurationError,Stimulus.OnsetDelay,Stimulus.OnsetTime,Stimulus.OnsetToOnsetTime,Stimulus.RESP,Stimulus.RT,TrialType
Wisconsin,1168,3,"<?xml version=""1.0""?>\n<Clock xmlns:dt=""urn:schemas-microsoft-com:datatypes""><Description dt:dt=""string"">E-Prime Primary Realtime Clock</Description><StartTime><Timestamp dt:dt=""int"">0</Timestamp><DateUtc dt:dt=""string"">2022-11-26T09:50:46Z</DateUtc></StartTime><FrequencyChanges><FrequencyChange><Frequency dt:dt=""r8"">10000000</Frequency><Timestamp dt:dt=""r8"">1733145470703</Timestamp><Current dt:dt=""r8"">0</Current><DateUtc dt:dt=""string"">2022-11-26T09:50:46Z</DateUtc></FrequencyChange></FrequencyChanges></Clock>\n",Wisconsin-1168-3,60.015,1.0.0.243,1,-2018261085,3.0.3.80,3.0.3.80,11-26-2022,11/26/2022 9:50:47 AM,17:50:47,3.0.3.82,1,1.0,1.0,1.0,,,,Practiceploc,List1,1,Button1.png,Button2.png,Button3.png,Button4.png,Greencircle3.png,顏色,{button1},1.0,{button1},2.0,50.0,19410.0,0.0,{Button1},2010.0,21420.0,,,,,,,1.0,1.0,1.0,PracticeTrialProc,PracticeList,1.0,{button1},2.0,50.0,19410.0,0.0,{Button1},2010.0,,,,,,,,,,,,,,,,,,,,,,,,,,,,,,,,,,,,,,
Wisconsin,1168,3,"<?xml version=""1.0""?>\n<Clock xmlns:dt=""urn:schemas-microsoft-com:datatypes""><Description dt:dt=""string"">E-Prime Primary Realtime Clock</Description><StartTime><Timestamp dt:dt=""int"">0</Timestamp><DateUtc dt:dt=""string"">2022-11-26T09:50:46Z</DateUtc></StartTime><FrequencyChanges><FrequencyChange><Frequency dt:dt=""r8"">10000000</Frequency><Timestamp dt:dt=""r8"">1733145470703</Timestamp><Current dt:dt=""r8"">0</Current><DateUtc dt:dt=""string"">2022-11-26T09:50:46Z</DateUtc></FrequencyChange></FrequencyChanges></Clock>\n",Wisconsin-1168-3,60.015,1.0.0.243,1,-2018261085,3.0.3.80,3.0.3.80,11-26-2022,11/26/2022 9:50:47 AM,17:50:47,3.0.3.82,1,1.0,1.0,1.0,,,,Practiceploc,List1,2,Button1.png,Button2.png,Button3.png,Button4.png,Redstar2.png,顏色,{button3},1.0,{button3},10.0,50.0,24009.0,0.0,{Button3},1099.0,25108.0,,,,,,,2.0,1.0,2.0,PracticeTrialProc,PracticeList,1.0,{button3},10.0,50.0,24009.0,0.0,{Button3},1099.0,,,,,,,,,,,,,,,,,,,,,,,,,,,,,,,,,,,,,,
Wisconsin,1168,3,"<?xml version=""1.0""?>\n<Clock xmlns:dt=""urn:schemas-microsoft-com:datatypes""><Description dt:dt=""string"">E-Prime Primary Realtime Clock</Description><StartTime><Timestamp dt:dt=""int"">0</Timestamp><DateUtc dt:dt=""string"">2022-11-26T09:50:46Z</DateUtc></StartTime><FrequencyChanges><FrequencyChange><Frequency dt:dt=""r8"">10000000</Frequency><Timestamp dt:dt=""r8"">1733145470703</Timestamp><Current dt:dt=""r8"">0</Current><DateUtc dt:dt=""string"">2022-11-26T09:50:46Z</DateUtc></FrequencyChange></FrequencyChanges></Clock>\n",Wisconsin-1168-3,60.015,1.0.0.243,1,-2018261085,3.0.3.80,3.0.3.80,11-26-2022,11/26/2022 9:50:47 AM,17:50:47,3.0.3.82,1,1.0,1.0,1.0,,,,Practiceploc,List1,3,Button1.png,Button2.png,Button3.png,Button4.png,Bluetriangle1.png,形狀,{button2},1.0,{button2},9.0,33.0,27691.0,0.0,{Button2},1489.0,29180.0,,,,,,,3.0,1.0,3.0,PracticeTrialProc,PracticeList,1.0,{button2},9.0,33.0,27691.0,0.0,{Button2},1489.0,,,,,,,,,,,,,,,,,,,,,,,,,,,,,,,,,,,,,,
Wisconsin,1168,3,"<?xml version=""1.0""?>\n<Clock xmlns:dt=""urn:schemas-microsoft-com:datatypes""><Description dt:dt=""string"">E-Prime Primary Realtime Clock</Description><StartTime><Timestamp dt:dt=""int"">0</Timestamp><DateUtc dt:dt=""string"">2022-11-26T09:50:46Z</DateUtc></StartTime><FrequencyChanges><FrequencyChange><Frequency dt:dt=""r8"">10000000</Frequency><Timestamp dt:dt=""r8"">1733145470703</Timestamp><Current dt:dt=""r8"">0</Current><DateUtc dt:dt=""string"">2022-11-26T09:50:46Z</DateUtc></FrequencyChange></FrequencyChanges></Clock>\n",Wisconsin-1168-3,60.015,1.0.0.243,1,-2018261085,3.0.3.80,3.0.3.80,11-26-2022,11/26/2022 9:50:47 AM,17:50:47,3.0.3.82,1,1.0,1.0,1.0,,,,Practiceploc,List1,4,Button1.png,Button2.png,Button3.png,Button4.png,greenstar2.png,形狀,{Button4},1.0,{Button4},9.0,50.0,31774.0,0.0,{Button4},1774.0,33548.0,,,,,,,4.0,1.0,4.0,PracticeTrialProc,PracticeList,1.0,{Button4},9.0,50.0,31774.0,0.0,{Button4},1774.0,,,,,,,,,,,,,,,,,,,,,,,,,,,,,,,,,,,,,,
Wisconsin,1168,3,"<?xml version=""1.0""?>\n<Clock xmlns:dt=""urn:schemas-microsoft-com:datatypes""><Description dt:dt=""string"">E-Prime Primary Realtime Clock</Description><StartTime><Timestamp dt:dt=""int"">0</Timestamp><DateUtc dt:dt=""string"">2022-11-26T09:50:46Z</DateUtc></StartTime><FrequencyChanges><FrequencyChange><Frequency dt:dt=""r8"">10000000</Frequency><Timestamp dt:dt=""r8"">1733145470703</Timestamp><Current dt:dt=""r8"">0</Current><DateUtc dt:dt=""string"">2022-11-26T09:50:46Z</DateUtc></FrequencyChange></FrequencyChanges></Clock>\n",Wisconsin-1168-3,60.015,1.0.0.243,1,-2018261085,3.0.3.80,3.0.3.80,11-26-2022,11/26/2022 9:50:47 AM,17:50:47,3.0.3.82,1,1.0,1.0,1.0,,,,Practiceploc,List1,5,Button1.png,Button2.png,Button3.png,Button4.png,BlueCross4.png,圖案數目,{Button2},1.0,{Button2},2.0,50.0,36139.0,0.0,{Button2},1401.0,37540.0,,,,,,,5.0,1.0,5.0,PracticeTrialProc,PracticeList,1.0,{Button2},2.0,50.0,36139.0,0.0,{Button2},1401.0,,,,,,,,,,,,,,,,,,,,,,,,,,,,,,,,,,,,,,
Wisconsin,1168,3,"<?xml version=""1.0""?>\n<Clock xmlns:dt=""urn:schemas-microsoft-com:datatypes""><Description dt:dt=""string"">E-Prime Primary Realtime Clock</Description><StartTime><Timestamp dt:dt=""int"">0</Timestamp><DateUtc dt:dt=""string"">2022-11-26T09:50:46Z</DateUtc></StartTime><FrequencyChanges><FrequencyChange><Frequency dt:dt=""r8"">10000000</Frequency><Timestamp dt:dt=""r8"">1733145470703</Timestamp><Current dt:dt=""r8"">0</Current><DateUtc dt:dt=""string"">2022-11-26T09:50:46Z</DateUtc></FrequencyChange></FrequencyChanges></Clock>\n",Wisconsin-1168-3,60.015,1.0.0.243,1,-2018261085,3.0.3.80,3.0.3.80,11-26-2022,11/26/2022 9:50:47 AM,17:50:47,3.0.3.82,1,1.0,1.0,1.0,,,,Practiceploc,List1,6,Button1.png,Button2.png,Button3.png,Button4.png,yellowcircle2.png,圖案數目,{Button1},1.0,{Button1},9.0,34.0,40122.0,0.0,{Button1},1282.0,41404.0,,,,,,,6.0,1.0,6.0,PracticeTrialProc,PracticeList,1.0,{Button1},9.0,34.0,40122.0,0.0,{Button1},1282.0,,,,,,,,,,,,,,,,,,,,,,,,,,,,,,,,,,,,,,
Wisconsin,1168,3,"<?xml version=""1.0""?>\n<Clock xmlns:dt=""urn:schemas-microsoft-com:datatypes""><Description dt:dt=""string"">E-Prime Primary Realtime Clock</Description><StartTime><Timestamp dt:dt=""int"">0</Timestamp><DateUtc dt:dt=""string"">2022-11-26T09:50:46Z</DateUtc></StartTime><FrequencyChanges><FrequencyChange><Frequency dt:dt=""r8"">10000000</Frequency><Timestamp dt:dt=""r8"">1733145470703</Timestamp><Current dt:dt=""r8"">0</Current><DateUtc dt:dt=""string"">2022-11-26T09:50:46Z</DateUtc></FrequencyChange></FrequencyChanges></Clock>\n",Wisconsin-1168-3,60.015,1.0.0.243,1,-2018261085,3.0.3.80,3.0.3.80,11-26-2022,11/26/2022 9:50:47 AM,17:50:47,3.0.3.82,2,,,,3.0,1.0,1.0,BlockProc,List2,1,,,,,,,,,,,,,,,,,1.0,1.0,1.0,,,,,,,NumberProc,List3,,,,,,,,,1.0,Button1.png,Button2.png,Button3.png,Button4.png,Bluecircle4.png,,,,,,,{Button2},0.0,1.0,1.0,1.0,,,,0.0,TrialProc,NumberList,,,,,,,1.0,{Button2},1.0,33.0,53785.0,0.0,{Button2},1099.0,number
Wisconsin,1168,3,"<?xml version=""1.0""?>\n<Clock xmlns:dt=""urn:schemas-microsoft-com:datatypes""><Description dt:dt=""string"">E-Prime Primary Realtime Clock</Description><StartTime><Timestamp dt:dt=""int"">0</Timestamp><DateUtc dt:dt=""string"">2022-11-26T09:50:46Z</DateUtc></StartTime><FrequencyChanges><FrequencyChange><Frequency dt:dt=""r8"">10000000</Frequency><Timestamp dt:dt=""r8"">1733145470703</Timestamp><Current dt:dt=""r8"">0</Current><DateUtc dt:dt=""string"">2022-11-26T09:50:46Z</DateUtc></FrequencyChange></FrequencyChanges></Clock>\n",Wisconsin-1168-3,60.015,1.0.0.243,1,-2018261085,3.0.3.80,3.0.3.80,11-26-2022,11/26/2022 9:50:47 AM,17:50:47,3.0.3.82,2,,,,3.0,1.0,1.0,BlockProc,List2,1,,,,,,,,,,,,,,,,,1.0,1.0,1.0,,,,,,,NumberProc,List3,,,,,,,,,2.0,Button1.png,Button2.png,Button3.png,Button4.png,Bluestar2.png,,,,,,,{Button1},0.0,2.0,1.0,2.0,,,,0.0,TrialProc,NumberList,,,,,,,1.0,{Button1},10.0,50.0,57484.0,0.0,{Button1},3016.0,number
Wisconsin,1168,3,"<?xml version=""1.0""?>\n<Clock xmlns:dt=""urn:schemas-microsoft-com:datatypes""><Description dt:dt=""string"">E-Prime Primary Realtime Clock</Description><StartTime><Timestamp dt:dt=""int"">0</Timestamp><DateUtc dt:dt=""string"">2022-11-26T09:50:46Z</DateUtc></StartTime><FrequencyChanges><FrequencyChange><Frequency dt:dt=""r8"">10000000</Frequency><Timestamp dt:dt=""r8"">1733145470703</Timestamp><Current dt:dt=""r8"">0</Current><DateUtc dt:dt=""string"">2022-11-26T09:50:46Z</DateUtc></FrequencyChange></FrequencyChanges></Clock>\n",Wisconsin-1168-3,60.015,1.0.0.243,1,-2018261085,3.0.3.80,3.0.3.80,11-26-2022,11/26/2022 9:50:47 AM,17:50:47,3.0.3.82,2,,,,3.0,1.0,1.0,BlockProc,List2,1,,,,,,,,,,,,,,,,,1.0,1.0,1.0,,,,,,,NumberProc,List3,,,,,,,,,3.0,Button1.png,Button2.png,Button3.png,Button4.png,Bluetriangle1.png,,,,,,,{Button4},0.0,3.0,1.0,3.0,,,,0.0,TrialProc,NumberList,,,,,,,1.0,{Button4},1.0,33.0,63083.0,0.0,{Button4},1329.0,number
Wisconsin,1168,3,"<?xml version=""1.0""?>\n<Clock xmlns:dt=""urn:schemas-microsoft-com:datatypes""><Description dt:dt=""string"">E-Prime Primary Realtime Clock</Description><StartTime><Timestamp dt:dt=""int"">0</Timestamp><DateUtc dt:dt=""string"">2022-11-26T09:50:46Z</DateUtc></StartTime><FrequencyChanges><FrequencyChange><Frequency dt:dt=""r8"">10000000</Frequency><Timestamp dt:dt=""r8"">1733145470703</Timestamp><Current dt:dt=""r8"">0</Current><DateUtc dt:dt=""string"">2022-11-26T09:50:46Z</DateUtc></FrequencyChange></FrequencyChanges></Clock>\n",Wisconsin-1168-3,60.015,1.0.0.243,1,-2018261085,3.0.3.80,3.0.3.80,11-26-2022,11/26/2022 9:50:47 AM,17:50:47,3.0.3.82,2,,,,3.0,1.0,1.0,BlockProc,List2,1,,,,,,,,,,,,,,,,,1.0,1.0,1.0,,,,,,,NumberProc,List3,,,,,,,,,4.0,Button1.png,Button2.png,Button3.png,Button4.png,Greencircle4.png,,,,,,,{Button2},0.0,4.0,1.0,4.0,,,,0.0,TrialProc,NumberList,,,,,,,1.0,{Button2},2.0,33.0,66998.0,0.0,{Button2},926.0,number
Wisconsin,1168,3,"<?xml version=""1.0""?>\n<Clock xmlns:dt=""urn:schemas-microsoft-com:datatypes""><Description dt:dt=""string"">E-Prime Primary Realtime Clock</Description><StartTime><Timestamp dt:dt=""int"">0</Timestamp><DateUtc dt:dt=""string"">2022-11-26T09:50:46Z</DateUtc></StartTime><FrequencyChanges><FrequencyChange><Frequency dt:dt=""r8"">10000000</Frequency><Timestamp dt:dt=""r8"">1733145470703</Timestamp><Current dt:dt=""r8"">0</Current><DateUtc dt:dt=""string"">2022-11-26T09:50:46Z</DateUtc></FrequencyChange></FrequencyChanges></Clock>\n",Wisconsin-1168-3,60.015,1.0.0.243,1,-2018261085,3.0.3.80,3.0.3.80,11-26-2022,11/26/2022 9:50:47 AM,17:50:47,3.0.3.82,2,,,,3.0,1.0,1.0,BlockProc,List2,1,,,,,,,,,,,,,,,,,1.0,1.0,1.0,,,,,,,NumberProc,List3,,,,,,,,,5.0,Button1.png,Button2.png,Button3.png,Button4.png,Redtriangle4.png,,,,,,,{Button2},0.0,8.0,1.0,5.0,,,,0.0,TrialProc,NumberList,,,,,,,1.0,{Button2},10.0,50.0,70514.0,0.0,{Button2},1066.0,number
Wisconsin,1168,3,"<?xml version=""1.0""?>\n<Clock xmlns:dt=""urn:schemas-microsoft-com:datatypes""><Description dt:dt=""string"">E-Prime Primary Realtime Clock</Description><StartTime><Timestamp dt:dt=""int"">0</Timestamp><DateUtc dt:dt=""string"">2022-11-26T09:50:46Z</DateUtc></StartTime><FrequencyChanges><FrequencyChange><Frequency dt:dt=""r8"">10000000</Frequency><Timestamp dt:dt=""r8"">1733145470703</Timestamp><Current dt:dt=""r8"">0</Current><DateUtc dt:dt=""string"">2022-11-26T09:50:46Z</DateUtc></FrequencyChange></FrequencyChanges></Clock>\n",Wisconsin-1168-3,60.015,1.0.0.243,1,-2018261085,3.0.3.80,3.0.3.80,11-26-2022,11/26/2022 9:50:47 AM,17:50:47,3.0.3.82,2,,,,3.0,1.0,1.0,BlockProc,List2,1,,,,,,,,,,,,,,,,,1.0,1.0,1.0,,,,,,,NumberProc,List3,,,,,,,,,6.0,Button1.png,Button2.png,Button3.png,Button4.png,Yellowcross3.png,,,,,,,{Button3},0.0,10.0,1.0,6.0,,,,0.0,TrialProc,NumberList,,,,,,,1.0,{Button3},10.0,50.0,74180.0,0.0,{Button3},1024.0,number
Wisconsin,1168,3,"<?xml version=""1.0""?>\n<Clock xmlns:dt=""urn:schemas-microsoft-com:datatypes""><Description dt:dt=""string"">E-Prime Primary Realtime Clock</Description><StartTime><Timestamp dt:dt=""int"">0</Timestamp><DateUtc dt:dt=""string"">2022-11-26T09:50:46Z</DateUtc></StartTime><FrequencyChanges><FrequencyChange><Frequency dt:dt=""r8"">10000000</Frequency><Timestamp dt:dt=""r8"">1733145470703</Timestamp><Current dt:dt=""r8"">0</Current><DateUtc dt:dt=""string"">2022-11-26T09:50:46Z</DateUtc></FrequencyChange></FrequencyChanges></Clock>\n",Wisconsin-1168-3,60.015,1.0.0.243,1,-2018261085,3.0.3.80,3.0.3.80,11-26-2022,11/26/2022 9:50:47 AM,17:50:47,3.0.3.82,2,,,,3.0,1.0,1.0,BlockProc,List2,1,,,,,,,,,,,,,,,,,1.0,1.0,1.0,,,,,,,NumberProc,List3,,,,,,,,,7.0,Button1.png,Button2.png,Button3.png,Button4.png,Redstar2.png,,,,,,,{Button1},0.0,7.0,1.0,7.0,,,,0.0,TrialProc,NumberList,,,,,,,1.0,{Button1},10.0,33.0,77779.0,0.0,{Button1},1817.0,number
Wisconsin,1168,3,"<?xml version=""1.0""?>\n<Clock xmlns:dt=""urn:schemas-microsoft-com:datatypes""><Description dt:dt=""string"">E-Prime Primary Realtime Clock</Description><StartTime><Timestamp dt:dt=""int"">0</Timestamp><DateUtc dt:dt=""string"">2022-11-26T09:50:46Z</DateUtc></StartTime><FrequencyChanges><FrequencyChange><Frequency dt:dt=""r8"">10000000</Frequency><Timestamp dt:dt=""r8"">1733145470703</Timestamp><Current dt:dt=""r8"">0</Current><DateUtc dt:dt=""string"">2022-11-26T09:50:46Z</DateUtc></FrequencyChange></FrequencyChanges></Clock>\n",Wisconsin-1168-3,60.015,1.0.0.243,1,-2018261085,3.0.3.80,3.0.3.80,11-26-2022,11/26/2022 9:50:47 AM,17:50:47,3.0.3.82,2,,,,3.0,1.0,1.0,BlockProc,List2,1,,,,,,,,,,,,,,,,,1.0,1.0,1.0,,,,,,,NumberProc,List3,,,,,,,,,8.0,Button1.png,Button2.png,Button3.png,Button4.png,Greencross3.png,,,,,,,{Button3},0.0,5.0,1.0,8.0,,,,0.0,TrialProc,NumberList,,,,,,,1.0,{Button3},2.0,33.0,82178.0,0.0,{Button3},1170.0,number
Wisconsin,1168,3,"<?xml version=""1.0""?>\n<Clock xmlns:dt=""urn:schemas-microsoft-com:datatypes""><Description dt:dt=""string"">E-Prime Primary Realtime Clock</Description><StartTime><Timestamp dt:dt=""int"">0</Timestamp><DateUtc dt:dt=""string"">2022-11-26T09:50:46Z</DateUtc></StartTime><FrequencyChanges><FrequencyChange><Frequency dt:dt=""r8"">10000000</Frequency><Timestamp dt:dt=""r8"">1733145470703</Timestamp><Current dt:dt=""r8"">0</Current><DateUtc dt:dt=""string"">2022-11-26T09:50:46Z</DateUtc></FrequencyChange></FrequencyChanges></Clock>\n",Wisconsin-1168-3,60.015,1.0.0.243,1,-2018261085,3.0.3.80,3.0.3.80,11-26-2022,11/26/2022 9:50:47 AM,17:50:47,3.0.3.82,2,,,,3.0,1.0,1.0,BlockProc,List2,1,,,,,,,,,,,,,,,,,1.0,1.0,1.0,,,,,,,NumberProc,List3,,,,,,,,,9.0,Button1.png,Button2.png,Button3.png,Button4.png,Redcircle4.png,,,,,,,{Button2},0.0,6.0,1.0,9.0,,,,0.0,TrialProc,NumberList,,,,,,,1.0,{Button2},2.0,33.0,85927.0,0.0,{Button2},813.0,number
Wisconsin,1168,3,"<?xml version=""1.0""?>\n<Clock xmlns:dt=""urn:schemas-microsoft-com:datatypes""><Description dt:dt=""string"">E-Prime Primary Realtime Clock</Description><StartTime><Timestamp dt:dt=""int"">0</Timestamp><DateUtc dt:dt=""string"">2022-11-26T09:50:46Z</DateUtc></StartTime><FrequencyChanges><FrequencyChange><Frequency dt:dt=""r8"">10000000</Frequency><Timestamp dt:dt=""r8"">1733145470703</Timestamp><Current dt:dt=""r8"">0</Current><DateUtc dt:dt=""string"">2022-11-26T09:50:46Z</DateUtc></FrequencyChange></FrequencyChanges></Clock>\n",Wisconsin-1168-3,60.015,1.0.0.243,1,-2018261085,3.0.3.80,3.0.3.80,11-26-2022,11/26/2022 9:50:47 AM,17:50:47,3.0.3.82,2,,,,3.0,1.0,1.0,BlockProc,List2,1,,,,,,,,,,,,,,,,,1.0,1.0,1.0,,,,,,,NumberProc,List3,,,,,,,,,10.0,Button1.png,Button2.png,Button3.png,Button4.png,Yellowcross1.png,,,,,,,{Button4},0.0,9.0,1.0,10.0,,,,0.0,TrialProc,NumberList,,,,,,,1.0,{Button4},10.0,33.0,89326.0,0.0,{Button4},2206.0,number
Wisconsin,1168,3,"<?xml version=""1.0""?>\n<Clock xmlns:dt=""urn:schemas-microsoft-com:datatypes""><Description dt:dt=""string"">E-Prime Primary Realtime Clock</Description><StartTime><Timestamp dt:dt=""int"">0</Timestamp><DateUtc dt:dt=""string"">2022-11-26T09:50:46Z</DateUtc></StartTime><FrequencyChanges><FrequencyChange><Frequency dt:dt=""r8"">10000000</Frequency><Timestamp dt:dt=""r8"">1733145470703</Timestamp><Current dt:dt=""r8"">0</Current><DateUtc dt:dt=""string"">2022-11-26T09:50:46Z</DateUtc></FrequencyChange></FrequencyChanges></Clock>\n",Wisconsin-1168-3,60.015,1.0.0.243,1,-2018261085,3.0.3.80,3.0.3.80,11-26-2022,11/26/2022 9:50:47 AM,17:50:47,3.0.3.82,2,,,,1.0,1.0,2.0,BlockProc,List2,2,,,,,,,,,,,,,,,,,1.0,1.0,1.0,,,,,,,ColorProc,List3,,,,,,,,,1.0,BUTTON1.png,BUTTON2.PNG,BUTTON3.png,BUTTON4.png,greenstar2.png,5.0,1.0,1.0,,,,{button1},0.0,,,,,,,0.0,TrialProc,ColorList,,,,,,,1.0,{button1},12.0,33.0,94108.0,0.0,{Button1},1000.0,Color
Wisconsin,1168,3,"<?xml version=""1.0""?>\n<Clock xmlns:dt=""urn:schemas-microsoft-com:datatypes""><Description dt:dt=""string"">E-Prime Primary Realtime Clock</Description><StartTime><Timestamp dt:dt=""int"">0</Timestamp><DateUtc dt:dt=""string"">2022-11-26T09:50:46Z</DateUtc></StartTime><FrequencyChanges><FrequencyChange><Frequency dt:dt=""r8"">10000000</Frequency><Timestamp dt:dt=""r8"">1733145470703</Timestamp><Current dt:dt=""r8"">0</Current><DateUtc dt:dt=""string"">2022-11-26T09:50:46Z</DateUtc></FrequencyChange></FrequencyChanges></Clock>\n",Wisconsin-1168-3,60.015,1.0.0.243,1,-2018261085,3.0.3.80,3.0.3.80,11-26-2022,11/26/2022 9:50:47 AM,17:50:47,3.0.3.82,2,,,,1.0,1.0,2.0,BlockProc,List2,2,,,,,,,,,,,,,,,,,1.0,1.0,1.0,,,,,,,ColorProc,List3,,,,,,,,,2.0,BUTTON1.png,BUTTON2.PNG,BUTTON3.png,BUTTON4.png,redcircle3.png,8.0,1.0,2.0,,,,{button3},0.0,,,,,,,0.0,TrialProc,ColorList,,,,,,,1.0,{button3},2.0,33.0,97691.0,0.0,{Button3},769.0,Color
Wisconsin,1168,3,"<?xml version=""1.0""?>\n<Clock xmlns:dt=""urn:schemas-microsoft-com:datatypes""><Description dt:dt=""string"">E-Prime Primary Realtime Clock</Description><StartTime><Timestamp dt:dt=""int"">0</Timestamp><DateUtc dt:dt=""string"">2022-11-26T09:50:46Z</DateUtc></StartTime><FrequencyChanges><FrequencyChange><Frequency dt:dt=""r8"">10000000</Frequency><Timestamp dt:dt=""r8"">1733145470703</Timestamp><Current dt:dt=""r8"">0</Current><DateUtc dt:dt=""string"">2022-11-26T09:50:46Z</DateUtc></FrequencyChange></FrequencyChanges></Clock>\n",Wisconsin-1168-3,60.015,1.0.0.243,1,-2018261085,3.0.3.80,3.0.3.80,11-26-2022,11/26/2022 9:50:47 AM,17:50:47,3.0.3.82,2,,,,1.0,1.0,2.0,BlockProc,List2,2,,,,,,,,,,,,,,,,,1.0,1.0,1.0,,,,,,,ColorProc,List3,,,,,,,,,3.0,BUTTON1.png,BUTTON2.PNG,BUTTON3.png,BUTTON4.png,bluetriangle3.png,3.0,1.0,3.0,,,,{button4},0.0,,,,,,,0.0,TrialProc,ColorList,,,,,,,0.0,{button4},10.0,33.0,101040.0,0.0,{Button3},1444.0,Color
Wisconsin,1168,3,"<?xml version=""1.0""?>\n<Clock xmlns:dt=""urn:schemas-microsoft-com:datatypes""><Description dt:dt=""string"">E-Prime Primary Realtime Clock</Description><StartTime><Timestamp dt:dt=""int"">0</Timestamp><DateUtc dt:dt=""string"">2022-11-26T09:50:46Z</DateUtc></StartTime><FrequencyChanges><FrequencyChange><Frequency dt:dt=""r8"">10000000</Frequency><Timestamp dt:dt=""r8"">1733145470703</Timestamp><Current dt:dt=""r8"">0</Current><DateUtc dt:dt=""string"">2022-11-26T09:50:46Z</DateUtc></FrequencyChange></FrequencyChanges></Clock>\n",Wisconsin-1168-3,60.015,1.0.0.243,1,-2018261085,3.0.3.80,3.0.3.80,11-26-2022,11/26/2022 9:50:47 AM,17:50:47,3.0.3.82,2,,,,1.0,1.0,2.0,BlockProc,List2,2,,,,,,,,,,,,,,,,,1.0,1.0,1.0,,,,,,,ColorProc,List3,,,,,,,,,4.0,BUTTON1.png,BUTTON2.PNG,BUTTON3.png,BUTTON4.png,bluecross2.png,2.0,1.0,4.0,,,,{button4},0.0,,,,,,,0.0,TrialProc,ColorList,,,,,,,1.0,{button4},9.0,33.0,105056.0,0.0,{Button4},2060.0,Color
Wisconsin,1168,3,"<?xml version=""1.0""?>\n<Clock xmlns:dt=""urn:schemas-microsoft-com:datatypes""><Description dt:dt=""string"">E-Prime Primary Realtime Clock</Description><StartTime><Timestamp dt:dt=""int"">0</Timestamp><DateUtc dt:dt=""string"">2022-11-26T09:50:46Z</DateUtc></StartTime><FrequencyChanges><FrequencyChange><Frequency dt:dt=""r8"">10000000</Frequency><Timestamp dt:dt=""r8"">1733145470703</Timestamp><Current dt:dt=""r8"">0</Current><DateUtc dt:dt=""string"">2022-11-26T09:50:46Z</DateUtc></FrequencyChange></FrequencyChanges></Clock>\n",Wisconsin-1168-3,60.015,1.0.0.243,1,-2018261085,3.0.3.80,3.0.3.80,11-26-2022,11/26/2022 9:50:47 AM,17:50:47,3.0.3.82,2,,,,1.0,1.0,2.0,BlockProc,List2,2,,,,,,,,,,,,,,,,,1.0,1.0,1.0,,,,,,,ColorProc,List3,,,,,,,,,5.0,BUTTON1.png,BUTTON2.PNG,BUTTON3.png,BUTTON4.png,greentriangle3.png,7.0,1.0,5.0,,,,{button1},0.0,,,,,,,0.0,TrialProc,ColorList,,,,,,,1.0,{button1},10.0,33.0,109688.0,0.0,{Button1},1076.0,Color
Wisconsin,1168,3,"<?xml version=""1.0""?>\n<Clock xmlns:dt=""urn:schemas-microsoft-com:datatypes""><Description dt:dt=""string"">E-Prime Primary Realtime Clock</Description><StartTime><Timestamp dt:dt=""int"">0</Timestamp><DateUtc dt:dt=""string"">2022-11-26T09:50:46Z</DateUtc></StartTime><FrequencyChanges><FrequencyChange><Frequency dt:dt=""r8"">10000000</Frequency><Timestamp dt:dt=""r8"">1733145470703</Timestamp><Current dt:dt=""r8"">0</Current><DateUtc dt:dt=""string"">2022-11-26T09:50:46Z</DateUtc></FrequencyChange></FrequencyChanges></Clock>\n",Wisconsin-1168-3,60.015,1.0.0.243,1,-2018261085,3.0.3.80,3.0.3.80,11-26-2022,11/26/2022 9:50:47 AM,17:50:47,3.0.3.82,2,,,,1.0,1.0,2.0,BlockProc,List2,2,,,,,,,,,,,,,,,,,1.0,1.0,1.0,,,,,,,ColorProc,List3,,,,,,,,,6.0,BUTTON1.png,BUTTON2.PNG,BUTTON3.png,BUTTON4.png,greencircle3.png,4.0,1.0,6.0,,,,{button1},0.0,,,,,,,0.0,TrialProc,ColorList,,,,,,,1.0,{button1},10.0,33.0,113337.0,0.0,{Button1},979.0,Color
Wisconsin,1168,3,"<?xml version=""1.0""?>\n<Clock xmlns:dt=""urn:schemas-microsoft-com:datatypes""><Description dt:dt=""string"">E-Prime Primary Realtime Clock</Description><StartTime><Timestamp dt:dt=""int"">0</Timestamp><DateUtc dt:dt=""string"">2022-11-26T09:50:46Z</DateUtc></StartTime><FrequencyChanges><FrequencyChange><Frequency dt:dt=""r8"">10000000</Frequency><Timestamp dt:dt=""r8"">1733145470703</Timestamp><Current dt:dt=""r8"">0</Current><DateUtc dt:dt=""string"">2022-11-26T09:50:46Z</DateUtc></FrequencyChange></FrequencyChanges></Clock>\n",Wisconsin-1168-3,60.015,1.0.0.243,1,-2018261085,3.0.3.80,3.0.3.80,11-26-2022,11/26/2022 9:50:47 AM,17:50:47,3.0.3.82,2,,,,1.0,1.0,2.0,BlockProc,List2,2,,,,,,,,,,,,,,,,,1.0,1.0,1.0,,,,,,,ColorProc,List3,,,,,,,,,7.0,BUTTON1.png,BUTTON2.PNG,BUTTON3.png,BUTTON4.png,yellowcircle1.png,9.0,1.0,7.0,,,,{button2},0.0,,,,,,,0.0,TrialProc,ColorList,,,,,,,1.0,{button2},1.0,33.0,116903.0,0.0,{Button2},829.0,Color
Wisconsin,1168,3,"<?xml version=""1.0""?>\n<Clock xmlns:dt=""urn:schemas-microsoft-com:datatypes""><Description dt:dt=""string"">E-Prime Primary Realtime Clock</Description><StartTime><Timestamp dt:dt=""int"">0</Timestamp><DateUtc dt:dt=""string"">2022-11-26T09:50:46Z</DateUtc></StartTime><FrequencyChanges><FrequencyChange><Frequency dt:dt=""r8"">10000000</Frequency><Timestamp dt:dt=""r8"">1733145470703</Timestamp><Current dt:dt=""r8"">0</Current><DateUtc dt:dt=""string"">2022-11-26T09:50:46Z</DateUtc></FrequencyChange></FrequencyChanges></Clock>\n",Wisconsin-1168-3,60.015,1.0.0.243,1,-2018261085,3.0.3.80,3.0.3.80,11-26-2022,11/26/2022 9:50:47 AM,17:50:47,3.0.3.82,2,,,,1.0,1.0,2.0,BlockProc,List2,2,,,,,,,,,,,,,,,,,1.0,1.0,1.0,,,,,,,ColorProc,List3,,,,,,,,,8.0,BUTTON1.png,BUTTON2.PNG,BUTTON3.png,BUTTON4.png,yellowstar3.png,10.0,1.0,8.0,,,,{button2},0.0,,,,,,,0.0,TrialProc,ColorList,,,,,,,1.0,{button2},10.0,33.0,120319.0,0.0,{Button2},981.0,Color
Wisconsin,1168,3,"<?xml version=""1.0""?>\n<Clock xmlns:dt=""urn:schemas-microsoft-com:datatypes""><Description dt:dt=""string"">E-Prime Primary Realtime Clock</Description><StartTime><Timestamp dt:dt=""int"">0</Timestamp><DateUtc dt:dt=""string"">2022-11-26T09:50:46Z</DateUtc></StartTime><FrequencyChanges><FrequencyChange><Frequency dt:dt=""r8"">10000000</Frequency><Timestamp dt:dt=""r8"">1733145470703</Timestamp><Current dt:dt=""r8"">0</Current><DateUtc dt:dt=""string"">2022-11-26T09:50:46Z</DateUtc></FrequencyChange></FrequencyChanges></Clock>\n",Wisconsin-1168-3,60.015,1.0.0.243,1,-2018261085,3.0.3.80,3.0.3.80,11-26-2022,11/26/2022 9:50:47 AM,17:50:47,3.0.3.82,2,,,,1.0,1.0,2.0,BlockProc,List2,2,,,,,,,,,,,,,,,,,1.0,1.0,1.0,,,,,,,ColorProc,List3,,,,,,,,,9.0,BUTTON1.png,BUTTON2.PNG,BUTTON3.png,BUTTON4.png,bluecircle1.png,1.0,1.0,9.0,,,,{button4},0.0,,,,,,,0.0,TrialProc,ColorList,,,,,,,1.0,{button4},10.0,33.0,123884.0,0.0,{Button4},1376.0,Color
Wisconsin,1168,3,"<?xml version=""1.0""?>\n<Clock xmlns:dt=""urn:schemas-microsoft-com:datatypes""><Description dt:dt=""string"">E-Prime Primary Realtime Clock</Description><StartTime><Timestamp dt:dt=""int"">0</Timestamp><DateUtc dt:dt=""string"">2022-11-26T09:50:46Z</DateUtc></StartTime><FrequencyChanges><FrequencyChange><Frequency dt:dt=""r8"">10000000</Frequency><Timestamp dt:dt=""r8"">1733145470703</Timestamp><Current dt:dt=""r8"">0</Current><DateUtc dt:dt=""string"">2022-11-26T09:50:46Z</DateUtc></FrequencyChange></FrequencyChanges></Clock>\n",Wisconsin-1168-3,60.015,1.0.0.243,1,-2018261085,3.0.3.80,3.0.3.80,11-26-2022,11/26/2022 9:50:47 AM,17:50:47,3.0.3.82,2,,,,1.0,1.0,2.0,BlockProc,List2,2,,,,,,,,,,,,,,,,,1.0,1.0,1.0,,,,,,,ColorProc,List3,,,,,,,,,10.0,BUTTON1.png,BUTTON2.PNG,BUTTON3.png,BUTTON4.png,greentriangle1.png,6.0,1.0,10.0,,,,{button1},0.0,,,,,,,0.0,TrialProc,ColorList,,,,,,,1.0,{button1},10.0,50.0,127850.0,0.0,{Button1},954.0,Color
Wisconsin,1168,3,"<?xml version=""1.0""?>\n<Clock xmlns:dt=""urn:schemas-microsoft-com:datatypes""><Description dt:dt=""string"">E-Prime Primary Realtime Clock</Description><StartTime><Timestamp dt:dt=""int"">0</Timestamp><DateUtc dt:dt=""string"">2022-11-26T09:50:46Z</DateUtc></StartTime><FrequencyChanges><FrequencyChange><Frequency dt:dt=""r8"">10000000</Frequency><Timestamp dt:dt=""r8"">1733145470703</Timestamp><Current dt:dt=""r8"">0</Current><DateUtc dt:dt=""string"">2022-11-26T09:50:46Z</DateUtc></FrequencyChange></FrequencyChanges></Clock>\n",Wisconsin-1168-3,60.015,1.0.0.243,1,-2018261085,3.0.3.80,3.0.3.80,11-26-2022,11/26/2022 9:50:47 AM,17:50:47,3.0.3.82,2,,,,2.0,1.0,3.0,BlockProc,List2,3,,,,,,,,,,,,,,,,,1.0,1.0,1.0,,,,,,,ShapeProc,List3,,,,,,,,,1.0,Button1.png,Button2.png,Button3.png,Button4.png,Bluecross4.png,,,,,,,{Button3},0.0,,,,,,,0.0,TrialProc,ShapeList,2.0,1.0,1.0,,,,0.0,{Button3},10.0,49.0,131399.0,0.0,{Button4},2717.0,Shape
Wisconsin,1168,3,"<?xml version=""1.0""?>\n<Clock xmlns:dt=""urn:schemas-microsoft-com:datatypes""><Description dt:dt=""string"">E-Prime Primary Realtime Clock</Description><StartTime><Timestamp dt:dt=""int"">0</Timestamp><DateUtc dt:dt=""string"">2022-11-26T09:50:46Z</DateUtc></StartTime><FrequencyChanges><FrequencyChange><Frequency dt:dt=""r8"">10000000</Frequency><Timestamp dt:dt=""r8"">1733145470703</Timestamp><Current dt:dt=""r8"">0</Current><DateUtc dt:dt=""string"">2022-11-26T09:50:46Z</DateUtc></FrequencyChange></FrequencyChanges></Clock>\n",Wisconsin-1168-3,60.015,1.0.0.243,1,-2018261085,3.0.3.80,3.0.3.80,11-26-2022,11/26/2022 9:50:47 AM,17:50:47,3.0.3.82,2,,,,2.0,1.0,3.0,BlockProc,List2,3,,,,,,,,,,,,,,,,,1.0,1.0,1.0,,,,,,,ShapeProc,List3,,,,,,,,,2.0,Button1.png,Button2.png,Button3.png,Button4.png,Redcross1.png,,,,,,,{Button3},0.0,,,,,,,0.0,TrialProc,ShapeList,5.0,1.0,2.0,,,,1.0,{Button3},2.0,33.0,136698.0,0.0,{Button3},1002.0,Shape
Wisconsin,1168,3,"<?xml version=""1.0""?>\n<Clock xmlns:dt=""urn:schemas-microsoft-com:datatypes""><Description dt:dt=""string"">E-Prime Primary Realtime Clock</Description><StartTime><Timestamp dt:dt=""int"">0</Timestamp><DateUtc dt:dt=""string"">2022-11-26T09:50:46Z</DateUtc></StartTime><FrequencyChanges><FrequencyChange><Frequency dt:dt=""r8"">10000000</Frequency><Timestamp dt:dt=""r8"">1733145470703</Timestamp><Current dt:dt=""r8"">0</Current><DateUtc dt:dt=""string"">2022-11-26T09:50:46Z</DateUtc></FrequencyChange></FrequencyChanges></Clock>\n",Wisconsin-1168-3,60.015,1.0.0.243,1,-2018261085,3.0.3.80,3.0.3.80,11-26-2022,11/26/2022 9:50:47 AM,17:50:47,3.0.3.82,2,,,,2.0,1.0,3.0,BlockProc,List2,3,,,,,,,,,,,,,,,,,1.0,1.0,1.0,,,,,,,ShapeProc,List3,,,,,,,,,3.0,Button1.png,Button2.png,Button3.png,Button4.png,Redcross4.png,,,,,,,{Button3},0.0,,,,,,,0.0,TrialProc,ShapeList,6.0,1.0,3.0,,,,1.0,{Button3},2.0,33.0,140280.0,0.0,{Button3},1180.0,Shape
Wisconsin,1168,3,"<?xml version=""1.0""?>\n<Clock xmlns:dt=""urn:schemas-microsoft-com:datatypes""><Description dt:dt=""string"">E-Prime Primary Realtime Clock</Description><StartTime><Timestamp dt:dt=""int"">0</Timestamp><DateUtc dt:dt=""string"">2022-11-26T09:50:46Z</DateUtc></StartTime><FrequencyChanges><FrequencyChange><Frequency dt:dt=""r8"">10000000</Frequency><Timestamp dt:dt=""r8"">1733145470703</Timestamp><Current dt:dt=""r8"">0</Current><DateUtc dt:dt=""string"">2022-11-26T09:50:46Z</DateUtc></FrequencyChange></FrequencyChanges></Clock>\n",Wisconsin-1168-3,60.015,1.0.0.243,1,-2018261085,3.0.3.80,3.0.3.80,11-26-2022,11/26/2022 9:50:47 AM,17:50:47,3.0.3.82,2,,,,2.0,1.0,3.0,BlockProc,List2,3,,,,,,,,,,,,,,,,,1.0,1.0,1.0,,,,,,,ShapeProc,List3,,,,,,,,,4.0,Button1.png,Button2.png,Button3.png,Button4.png,Greentriangle4.png,,,,,,,{Button2},0.0,,,,,,,0.0,TrialProc,ShapeList,4.0,1.0,4.0,,,,1.0,{Button2},10.0,33.0,144046.0,0.0,{Button2},1214.0,Shape
Wisconsin,1168,3,"<?xml version=""1.0""?>\n<Clock xmlns:dt=""urn:schemas-microsoft-com:datatypes""><Description dt:dt=""string"">E-Prime Primary Realtime Clock</Description><StartTime><Timestamp dt:dt=""int"">0</Timestamp><DateUtc dt:dt=""string"">2022-11-26T09:50:46Z</DateUtc></StartTime><FrequencyChanges><FrequencyChange><Frequency dt:dt=""r8"">10000000</Frequency><Timestamp dt:dt=""r8"">1733145470703</Timestamp><Current dt:dt=""r8"">0</Current><DateUtc dt:dt=""string"">2022-11-26T09:50:46Z</DateUtc></FrequencyChange></FrequencyChanges></Clock>\n",Wisconsin-1168-3,60.015,1.0.0.243,1,-2018261085,3.0.3.80,3.0.3.80,11-26-2022,11/26/2022 9:50:47 AM,17:50:47,3.0.3.82,2,,,,2.0,1.0,3.0,BlockProc,List2,3,,,,,,,,,,,,,,,,,1.0,1.0,1.0,,,,,,,ShapeProc,List3,,,,,,,,,5.0,Button1.png,Button2.png,Button3.png,Button4.png,Redtriangle1.png,,,,,,,{Button2},0.0,,,,,,,0.0,TrialProc,ShapeList,7.0,1.0,5.0,,,,1.0,{Button2},10.0,33.0,147845.0,0.0,{Button2},1159.0,Shape
Wisconsin,1168,3,"<?xml version=""1.0""?>\n<Clock xmlns:dt=""urn:schemas-microsoft-com:datatypes""><Description dt:dt=""string"">E-Prime Primary Realtime Clock</Description><StartTime><Timestamp dt:dt=""int"">0</Timestamp><DateUtc dt:dt=""string"">2022-11-26T09:50:46Z</DateUtc></StartTime><FrequencyChanges><FrequencyChange><Frequency dt:dt=""r8"">10000000</Frequency><Timestamp dt:dt=""r8"">1733145470703</Timestamp><Current dt:dt=""r8"">0</Current><DateUtc dt:dt=""string"">2022-11-26T09:50:46Z</DateUtc></FrequencyChange></FrequencyChanges></Clock>\n",Wisconsin-1168-3,60.015,1.0.0.243,1,-2018261085,3.0.3.80,3.0.3.80,11-26-2022,11/26/2022 9:50:47 AM,17:50:47,3.0.3.82,2,,,,2.0,1.0,3.0,BlockProc,List2,3,,,,,,,,,,,,,,,,,1.0,1.0,1.0,,,,,,,ShapeProc,List3,,,,,,,,,6.0,Button1.png,Button2.png,Button3.png,Button4.png,Bluecircle2.png,,,,,,,{Button1},0.0,,,,,,,0.0,TrialProc,ShapeList,1.0,1.0,6.0,,,,1.0,{Button1},9.0,33.0,151578.0,0.0,{Button1},1098.0,Shape
Wisconsin,1168,3,"<?xml version=""1.0""?>\n<Clock xmlns:dt=""urn:schemas-microsoft-com:datatypes""><Description dt:dt=""string"">E-Prime Primary Realtime Clock</Description><StartTime><Timestamp dt:dt=""int"">0</Timestamp><DateUtc dt:dt=""string"">2022-11-26T09:50:46Z</DateUtc></StartTime><FrequencyChanges><FrequencyChange><Frequency dt:dt=""r8"">10000000</Frequency><Timestamp dt:dt=""r8"">1733145470703</Timestamp><Current dt:dt=""r8"">0</Current><DateUtc dt:dt=""string"">2022-11-26T09:50:46Z</DateUtc></FrequencyChange></FrequencyChanges></Clock>\n",Wisconsin-1168-3,60.015,1.0.0.243,1,-2018261085,3.0.3.80,3.0.3.80,11-26-2022,11/26/2022 9:50:47 AM,17:50:47,3.0.3.82,2,,,,2.0,1.0,3.0,BlockProc,List2,3,,,,,,,,,,,,,,,,,1.0,1.0,1.0,,,,,,,ShapeProc,List3,,,,,,,,,7.0,Button1.png,Button2.png,Button3.png,Button4.png,Yellowstar1.png,,,,,,,{Button4},0.0,,,,,,,0.0,TrialProc,ShapeList,9.0,1.0,7.0,,,,0.0,{Button4},10.0,33.0,155260.0,0.0,{Button2},952.0,Shape
Wisconsin,1168,3,"<?xml version=""1.0""?>\n<Clock xmlns:dt=""urn:schemas-microsoft-com:datatypes""><Description dt:dt=""string"">E-Prime Primary Realtime Clock</Description><StartTime><Timestamp dt:dt=""int"">0</Timestamp><DateUtc dt:dt=""string"">2022-11-26T09:50:46Z</DateUtc></StartTime><FrequencyChanges><FrequencyChange><Frequency dt:dt=""r8"">10000000</Frequency><Timestamp dt:dt=""r8"">1733145470703</Timestamp><Current dt:dt=""r8"">0</Current><DateUtc dt:dt=""string"">2022-11-26T09:50:46Z</DateUtc></FrequencyChange></FrequencyChanges></Clock>\n",Wisconsin-1168-3,60.015,1.0.0.243,1,-2018261085,3.0.3.80,3.0.3.80,11-26-2022,11/26/2022 9:50:47 AM,17:50:47,3.0.3.82,2,,,,2.0,1.0,3.0,BlockProc,List2,3,,,,,,,,,,,,,,,,,1.0,1.0,1.0,,,,,,,ShapeProc,List3,,,,,,,,,8.0,Button1.png,Button2.png,Button3.png,Button4.png,yellowcircle3.png,,,,,,,{Button1},0.0,,,,,,,0.0,TrialProc,ShapeList,8.0,1.0,8.0,,,,1.0,{Button1},10.0,33.0,158793.0,0.0,{Button1},1043.0,Shape
Wisconsin,1168,3,"<?xml version=""1.0""?>\n<Clock xmlns:dt=""urn:schemas-microsoft-com:datatypes""><Description dt:dt=""string"">E-Prime Primary Realtime Clock</Description><StartTime><Timestamp dt:dt=""int"">0</Timestamp><DateUtc dt:dt=""string"">2022-11-26T09:50:46Z</DateUtc></StartTime><FrequencyChanges><FrequencyChange><Frequency dt:dt=""r8"">10000000</Frequency><Timestamp dt:dt=""r8"">1733145470703</Timestamp><Current dt:dt=""r8"">0</Current><DateUtc dt:dt=""string"">2022-11-26T09:50:46Z</DateUtc></FrequencyChange></FrequencyChanges></Clock>\n",Wisconsin-1168-3,60.015,1.0.0.243,1,-2018261085,3.0.3.80,3.0.3.80,11-26-2022,11/26/2022 9:50:47 AM,17:50:47,3.0.3.82,2,,,,2.0,1.0,3.0,BlockProc,List2,3,,,,,,,,,,,,,,,,,1.0,1.0,1.0,,,,,,,ShapeProc,List3,,,,,,,,,9.0,Button1.png,Button2.png,Button3.png,Button4.png,Greencross1.png,,,,,,,{Button3},0.0,,,,,,,0.0,TrialProc,ShapeList,3.0,1.0,9.0,,,,1.0,{Button3},12.0,50.0,162442.0,0.0,{Button3},3322.0,Shape
Wisconsin,1168,3,"<?xml version=""1.0""?>\n<Clock xmlns:dt=""urn:schemas-microsoft-com:datatypes""><Description dt:dt=""string"">E-Prime Primary Realtime Clock</Description><StartTime><Timestamp dt:dt=""int"">0</Timestamp><DateUtc dt:dt=""string"">2022-11-26T09:50:46Z</DateUtc></StartTime><FrequencyChanges><FrequencyChange><Frequency dt:dt=""r8"">10000000</Frequency><Timestamp dt:dt=""r8"">1733145470703</Timestamp><Current dt:dt=""r8"">0</Current><DateUtc dt:dt=""string"">2022-11-26T09:50:46Z</DateUtc></FrequencyChange></FrequencyChanges></Clock>\n",Wisconsin-1168-3,60.015,1.0.0.243,1,-2018261085,3.0.3.80,3.0.3.80,11-26-2022,11/26/2022 9:50:47 AM,17:50:47,3.0.3.82,2,,,,2.0,1.0,3.0,BlockProc,List2,3,,,,,,,,,,,,,,,,,1.0,1.0,1.0,,,,,,,ShapeProc,List3,,,,,,,,,10.0,Button1.png,Button2.png,Button3.png,Button4.png,Yellowstar4.png,,,,,,,{Button4},0.0,,,,,,,0.0,TrialProc,ShapeList,10.0,1.0,10.0,,,,1.0,{Button4},11.0,33.0,168340.0,0.0,{Button4},2136.0,Shape
Wisconsin,1168,3,"<?xml version=""1.0""?>\n<Clock xmlns:dt=""urn:schemas-microsoft-com:datatypes""><Description dt:dt=""string"">E-Prime Primary Realtime Clock</Description><StartTime><Timestamp dt:dt=""int"">0</Timestamp><DateUtc dt:dt=""string"">2022-11-26T09:50:46Z</DateUtc></StartTime><FrequencyChanges><FrequencyChange><Frequency dt:dt=""r8"">10000000</Frequency><Timestamp dt:dt=""r8"">1733145470703</Timestamp><Current dt:dt=""r8"">0</Current><DateUtc dt:dt=""string"">2022-11-26T09:50:46Z</DateUtc></FrequencyChange></FrequencyChanges></Clock>\n",Wisconsin-1168-3,60.015,1.0.0.243,1,-2018261085,3.0.3.80,3.0.3.80,11-26-2022,11/26/2022 9:50:47 AM,17:50:47,3.0.3.82,3,,,,,,,BlockProc2,List2,1,,,,,,,,,,,,,,,,,2.0,1.0,2.0,3.0,1.0,1.0,,,,NumberProc2,List4,,,,,,,,,1.0,Button1.png,Button2.png,Button3.png,Button4.png,Bluecross3.png,,,,,,,{button3},0.0,,,,1.0,1.0,1.0,0.0,TrialProc,NumberList2,,,,,,,1.0,{button3},9.0,33.0,173056.0,0.0,{Button3},1852.0,number
Wisconsin,1168,3,"<?xml version=""1.0""?>\n<Clock xmlns:dt=""urn:schemas-microsoft-com:datatypes""><Description dt:dt=""string"">E-Prime Primary Realtime Clock</Description><StartTime><Timestamp dt:dt=""int"">0</Timestamp><DateUtc dt:dt=""string"">2022-11-26T09:50:46Z</DateUtc></StartTime><FrequencyChanges><FrequencyChange><Frequency dt:dt=""r8"">10000000</Frequency><Timestamp dt:dt=""r8"">1733145470703</Timestamp><Current dt:dt=""r8"">0</Current><DateUtc dt:dt=""string"">2022-11-26T09:50:46Z</DateUtc></FrequencyChange></FrequencyChanges></Clock>\n",Wisconsin-1168-3,60.015,1.0.0.243,1,-2018261085,3.0.3.80,3.0.3.80,11-26-2022,11/26/2022 9:50:47 AM,17:50:47,3.0.3.82,3,,,,,,,BlockProc2,List2,1,,,,,,,,,,,,,,,,,2.0,1.0,2.0,3.0,1.0,1.0,,,,NumberProc2,List4,,,,,,,,,2.0,Button1.png,Button2.png,Button3.png,Button4.png,Bluestar4.png,,,,,,,{button2},0.0,,,,2.0,1.0,2.0,0.0,TrialProc,NumberList2,,,,,,,0.0,{button2},2.0,50.0,177505.0,0.0,{Button4},1643.0,number
Wisconsin,1168,3,"<?xml version=""1.0""?>\n<Clock xmlns:dt=""urn:schemas-microsoft-com:datatypes""><Description dt:dt=""string"">E-Prime Primary Realtime Clock</Description><StartTime><Timestamp dt:dt=""int"">0</Timestamp><DateUtc dt:dt=""string"">2022-11-26T09:50:46Z</DateUtc></StartTime><FrequencyChanges><FrequencyChange><Frequency dt:dt=""r8"">10000000</Frequency><Timestamp dt:dt=""r8"">1733145470703</Timestamp><Current dt:dt=""r8"">0</Current><DateUtc dt:dt=""string"">2022-11-26T09:50:46Z</DateUtc></FrequencyChange></FrequencyChanges></Clock>\n",Wisconsin-1168-3,60.015,1.0.0.243,1,-2018261085,3.0.3.80,3.0.3.80,11-26-2022,11/26/2022 9:50:47 AM,17:50:47,3.0.3.82,3,,,,,,,BlockProc2,List2,1,,,,,,,,,,,,,,,,,2.0,1.0,2.0,3.0,1.0,1.0,,,,NumberProc2,List4,,,,,,,,,3.0,Button1.png,Button2.png,Button3.png,Button4.png,Bluetriangle4.png,,,,,,,{button2},0.0,,,,3.0,1.0,3.0,0.0,TrialProc,NumberList2,,,,,,,1.0,{button2},3.0,50.0,181737.0,0.0,{Button2},2315.0,number
Wisconsin,1168,3,"<?xml version=""1.0""?>\n<Clock xmlns:dt=""urn:schemas-microsoft-com:datatypes""><Description dt:dt=""string"">E-Prime Primary Realtime Clock</Description><StartTime><Timestamp dt:dt=""int"">0</Timestamp><DateUtc dt:dt=""string"">2022-11-26T09:50:46Z</DateUtc></StartTime><FrequencyChanges><FrequencyChange><Frequency dt:dt=""r8"">10000000</Frequency><Timestamp dt:dt=""r8"">1733145470703</Timestamp><Current dt:dt=""r8"">0</Current><DateUtc dt:dt=""string"">2022-11-26T09:50:46Z</DateUtc></FrequencyChange></FrequencyChanges></Clock>\n",Wisconsin-1168-3,60.015,1.0.0.243,1,-2018261085,3.0.3.80,3.0.3.80,11-26-2022,11/26/2022 9:50:47 AM,17:50:47,3.0.3.82,3,,,,,,,BlockProc2,List2,1,,,,,,,,,,,,,,,,,2.0,1.0,2.0,3.0,1.0,1.0,,,,NumberProc2,List4,,,,,,,,,4.0,Button1.png,Button2.png,Button3.png,Button4.png,Greencross2.png,,,,,,,{button1},0.0,,,,4.0,1.0,4.0,0.0,TrialProc,NumberList2,,,,,,,1.0,{button1},1.0,33.0,186636.0,0.0,{Button1},944.0,number
Wisconsin,1168,3,"<?xml version=""1.0""?>\n<Clock xmlns:dt=""urn:schemas-microsoft-com:datatypes""><Description dt:dt=""string"">E-Prime Primary Realtime Clock</Description><StartTime><Timestamp dt:dt=""int"">0</Timestamp><DateUtc dt:dt=""string"">2022-11-26T09:50:46Z</DateUtc></StartTime><FrequencyChanges><FrequencyChange><Frequency dt:dt=""r8"">10000000</Frequency><Timestamp dt:dt=""r8"">1733145470703</Timestamp><Current dt:dt=""r8"">0</Current><DateUtc dt:dt=""string"">2022-11-26T09:50:46Z</DateUtc></FrequencyChange></FrequencyChanges></Clock>\n",Wisconsin-1168-3,60.015,1.0.0.243,1,-2018261085,3.0.3.80,3.0.3.80,11-26-2022,11/26/2022 9:50:47 AM,17:50:47,3.0.3.82,3,,,,,,,BlockProc2,List2,1,,,,,,,,,,,,,,,,,2.0,1.0,2.0,3.0,1.0,1.0,,,,NumberProc2,List4,,,,,,,,,5.0,Button1.png,Button2.png,Button3.png,Button4.png,Greenstar1.png,,,,,,,{button4},0.0,,,,5.0,1.0,5.0,0.0,TrialProc,NumberList2,,,,,,,1.0,{button4},2.0,33.0,190168.0,0.0,{Button4},1180.0,number
Wisconsin,1168,3,"<?xml version=""1.0""?>\n<Clock xmlns:dt=""urn:schemas-microsoft-com:datatypes""><Description dt:dt=""string"">E-Prime Primary Realtime Clock</Description><StartTime><Timestamp dt:dt=""int"">0</Timestamp><DateUtc dt:dt=""string"">2022-11-26T09:50:46Z</DateUtc></StartTime><FrequencyChanges><FrequencyChange><Frequency dt:dt=""r8"">10000000</Frequency><Timestamp dt:dt=""r8"">1733145470703</Timestamp><Current dt:dt=""r8"">0</Current><DateUtc dt:dt=""string"">2022-11-26T09:50:46Z</DateUtc></FrequencyChange></FrequencyChanges></Clock>\n",Wisconsin-1168-3,60.015,1.0.0.243,1,-2018261085,3.0.3.80,3.0.3.80,11-26-2022,11/26/2022 9:50:47 AM,17:50:47,3.0.3.82,3,,,,,,,BlockProc2,List2,1,,,,,,,,,,,,,,,,,2.0,1.0,2.0,3.0,1.0,1.0,,,,NumberProc2,List4,,,,,,,,,6.0,Button1.png,Button2.png,Button3.png,Button4.png,Redstar1.png,,,,,,,{button4},0.0,,,,6.0,1.0,6.0,0.0,TrialProc,NumberList2,,,,,,,1.0,{button4},2.0,33.0,193934.0,0.0,{Button4},998.0,number
Wisconsin,1168,3,"<?xml version=""1.0""?>\n<Clock xmlns:dt=""urn:schemas-microsoft-com:datatypes""><Description dt:dt=""string"">E-Prime Primary Realtime Clock</Description><StartTime><Timestamp dt:dt=""int"">0</Timestamp><DateUtc dt:dt=""string"">2022-11-26T09:50:46Z</DateUtc></StartTime><FrequencyChanges><FrequencyChange><Frequency dt:dt=""r8"">10000000</Frequency><Timestamp dt:dt=""r8"">1733145470703</Timestamp><Current dt:dt=""r8"">0</Current><DateUtc dt:dt=""string"">2022-11-26T09:50:46Z</DateUtc></FrequencyChange></FrequencyChanges></Clock>\n",Wisconsin-1168-3,60.015,1.0.0.243,1,-2018261085,3.0.3.80,3.0.3.80,11-26-2022,11/26/2022 9:50:47 AM,17:50:47,3.0.3.82,3,,,,,,,BlockProc2,List2,1,,,,,,,,,,,,,,,,,2.0,1.0,2.0,3.0,1.0,1.0,,,,NumberProc2,List4,,,,,,,,,7.0,Button1.png,Button2.png,Button3.png,Button4.png,Redtriangle2.png,,,,,,,{button1},0.0,,,,7.0,1.0,7.0,0.0,TrialProc,NumberList2,,,,,,,1.0,{button1},2.0,50.0,197533.0,0.0,{Button1},1847.0,number
Wisconsin,1168,3,"<?xml version=""1.0""?>\n<Clock xmlns:dt=""urn:schemas-microsoft-com:datatypes""><Description dt:dt=""string"">E-Prime Primary Realtime Clock</Description><StartTime><Timestamp dt:dt=""int"">0</Timestamp><DateUtc dt:dt=""string"">2022-11-26T09:50:46Z</DateUtc></StartTime><FrequencyChanges><FrequencyChange><Frequency dt:dt=""r8"">10000000</Frequency><Timestamp dt:dt=""r8"">1733145470703</Timestamp><Current dt:dt=""r8"">0</Current><DateUtc dt:dt=""string"">2022-11-26T09:50:46Z</DateUtc></FrequencyChange></FrequencyChanges></Clock>\n",Wisconsin-1168-3,60.015,1.0.0.243,1,-2018261085,3.0.3.80,3.0.3.80,11-26-2022,11/26/2022 9:50:47 AM,17:50:47,3.0.3.82,3,,,,,,,BlockProc2,List2,1,,,,,,,,,,,,,,,,,2.0,1.0,2.0,3.0,1.0,1.0,,,,NumberProc2,List4,,,,,,,,,8.0,Button1.png,Button2.png,Button3.png,Button4.png,yellowcircle4.png,,,,,,,{button2},0.0,,,,8.0,1.0,8.0,0.0,TrialProc,NumberList2,,,,,,,1.0,{button2},10.0,33.0,201965.0,0.0,{Button2},1719.0,number
Wisconsin,1168,3,"<?xml version=""1.0""?>\n<Clock xmlns:dt=""urn:schemas-microsoft-com:datatypes""><Description dt:dt=""string"">E-Prime Primary Realtime Clock</Description><StartTime><Timestamp dt:dt=""int"">0</Timestamp><DateUtc dt:dt=""string"">2022-11-26T09:50:46Z</DateUtc></StartTime><FrequencyChanges><FrequencyChange><Frequency dt:dt=""r8"">10000000</Frequency><Timestamp dt:dt=""r8"">1733145470703</Timestamp><Current dt:dt=""r8"">0</Current><DateUtc dt:dt=""string"">2022-11-26T09:50:46Z</DateUtc></FrequencyChange></FrequencyChanges></Clock>\n",Wisconsin-1168-3,60.015,1.0.0.243,1,-2018261085,3.0.3.80,3.0.3.80,11-26-2022,11/26/2022 9:50:47 AM,17:50:47,3.0.3.82,3,,,,,,,BlockProc2,List2,1,,,,,,,,,,,,,,,,,2.0,1.0,2.0,3.0,1.0,1.0,,,,NumberProc2,List4,,,,,,,,,9.0,Button1.png,Button2.png,Button3.png,Button4.png,Yellowcross2.png,,,,,,,{button1},0.0,,,,9.0,1.0,9.0,0.0,TrialProc,NumberList2,,,,,,,1.0,{button1},2.0,33.0,206264.0,0.0,{Button1},1508.0,number
Wisconsin,1168,3,"<?xml version=""1.0""?>\n<Clock xmlns:dt=""urn:schemas-microsoft-com:datatypes""><Description dt:dt=""string"">E-Prime Primary Realtime Clock</Description><StartTime><Timestamp dt:dt=""int"">0</Timestamp><DateUtc dt:dt=""string"">2022-11-26T09:50:46Z</DateUtc></StartTime><FrequencyChanges><FrequencyChange><Frequency dt:dt=""r8"">10000000</Frequency><Timestamp dt:dt=""r8"">1733145470703</Timestamp><Current dt:dt=""r8"">0</Current><DateUtc dt:dt=""string"">2022-11-26T09:50:46Z</DateUtc></FrequencyChange></FrequencyChanges></Clock>\n",Wisconsin-1168-3,60.015,1.0.0.243,1,-2018261085,3.0.3.80,3.0.3.80,11-26-2022,11/26/2022 9:50:47 AM,17:50:47,3.0.3.82,3,,,,,,,BlockProc2,List2,1,,,,,,,,,,,,,,,,,2.0,1.0,2.0,3.0,1.0,1.0,,,,NumberProc2,List4,,,,,,,,,10.0,Button1.png,Button2.png,Button3.png,Button4.png,Yellowtriangle2.png,,,,,,,{button3},0.0,,,,10.0,1.0,10.0,0.0,TrialProc,NumberList2,,,,,,,0.0,{button3},1.0,33.0,210347.0,0.0,{Button1},2257.0,number
Wisconsin,1168,3,"<?xml version=""1.0""?>\n<Clock xmlns:dt=""urn:schemas-microsoft-com:datatypes""><Description dt:dt=""string"">E-Prime Primary Realtime Clock</Description><StartTime><Timestamp dt:dt=""int"">0</Timestamp><DateUtc dt:dt=""string"">2022-11-26T09:50:46Z</DateUtc></StartTime><FrequencyChanges><FrequencyChange><Frequency dt:dt=""r8"">10000000</Frequency><Timestamp dt:dt=""r8"">1733145470703</Timestamp><Current dt:dt=""r8"">0</Current><DateUtc dt:dt=""string"">2022-11-26T09:50:46Z</DateUtc></FrequencyChange></FrequencyChanges></Clock>\n",Wisconsin-1168-3,60.015,1.0.0.243,1,-2018261085,3.0.3.80,3.0.3.80,11-26-2022,11/26/2022 9:50:47 AM,17:50:47,3.0.3.82,3,,,,,,,BlockProc2,List2,2,,,,,,,,,,,,,,,,,2.0,1.0,2.0,2.0,1.0,2.0,,,,ShapeProc2,List4,,,,,,,,,1.0,Button1.png,Button2.png,Button3.png,Button4.png,redcircle1.png,,,,,,,{button1},0.0,,,,,,,0.0,TrialProc,ShapeList2,,,,4.0,1.0,1.0,0.0,{button1},10.0,33.0,215179.0,0.0,{Button3},1113.0,Shape
Wisconsin,1168,3,"<?xml version=""1.0""?>\n<Clock xmlns:dt=""urn:schemas-microsoft-com:datatypes""><Description dt:dt=""string"">E-Prime Primary Realtime Clock</Description><StartTime><Timestamp dt:dt=""int"">0</Timestamp><DateUtc dt:dt=""string"">2022-11-26T09:50:46Z</DateUtc></StartTime><FrequencyChanges><FrequencyChange><Frequency dt:dt=""r8"">10000000</Frequency><Timestamp dt:dt=""r8"">1733145470703</Timestamp><Current dt:dt=""r8"">0</Current><DateUtc dt:dt=""string"">2022-11-26T09:50:46Z</DateUtc></FrequencyChange></FrequencyChanges></Clock>\n",Wisconsin-1168-3,60.015,1.0.0.243,1,-2018261085,3.0.3.80,3.0.3.80,11-26-2022,11/26/2022 9:50:47 AM,17:50:47,3.0.3.82,3,,,,,,,BlockProc2,List2,2,,,,,,,,,,,,,,,,,2.0,1.0,2.0,2.0,1.0,2.0,,,,ShapeProc2,List4,,,,,,,,,2.0,Button1.png,Button2.png,Button3.png,Button4.png,Redcross2.png,,,,,,,{button3},0.0,,,,,,,0.0,TrialProc,ShapeList2,,,,5.0,1.0,2.0,1.0,{button3},10.0,33.0,218878.0,0.0,{Button3},1558.0,Shape
Wisconsin,1168,3,"<?xml version=""1.0""?>\n<Clock xmlns:dt=""urn:schemas-microsoft-com:datatypes""><Description dt:dt=""string"">E-Prime Primary Realtime Clock</Description><StartTime><Timestamp dt:dt=""int"">0</Timestamp><DateUtc dt:dt=""string"">2022-11-26T09:50:46Z</DateUtc></StartTime><FrequencyChanges><FrequencyChange><Frequency dt:dt=""r8"">10000000</Frequency><Timestamp dt:dt=""r8"">1733145470703</Timestamp><Current dt:dt=""r8"">0</Current><DateUtc dt:dt=""string"">2022-11-26T09:50:46Z</DateUtc></FrequencyChange></FrequencyChanges></Clock>\n",Wisconsin-1168-3,60.015,1.0.0.243,1,-2018261085,3.0.3.80,3.0.3.80,11-26-2022,11/26/2022 9:50:47 AM,17:50:47,3.0.3.82,3,,,,,,,BlockProc2,List2,2,,,,,,,,,,,,,,,,,2.0,1.0,2.0,2.0,1.0,2.0,,,,ShapeProc2,List4,,,,,,,,,3.0,Button1.png,Button2.png,Button3.png,Button4.png,Redtriangle3.png,,,,,,,{button2},0.0,,,,,,,0.0,TrialProc,ShapeList2,,,,7.0,1.0,3.0,1.0,{button2},2.0,33.0,223010.0,0.0,{Button2},1330.0,Shape
Wisconsin,1168,3,"<?xml version=""1.0""?>\n<Clock xmlns:dt=""urn:schemas-microsoft-com:datatypes""><Description dt:dt=""string"">E-Prime Primary Realtime Clock</Description><StartTime><Timestamp dt:dt=""int"">0</Timestamp><DateUtc dt:dt=""string"">2022-11-26T09:50:46Z</DateUtc></StartTime><FrequencyChanges><FrequencyChange><Frequency dt:dt=""r8"">10000000</Frequency><Timestamp dt:dt=""r8"">1733145470703</Timestamp><Current dt:dt=""r8"">0</Current><DateUtc dt:dt=""string"">2022-11-26T09:50:46Z</DateUtc></FrequencyChange></FrequencyChanges></Clock>\n",Wisconsin-1168-3,60.015,1.0.0.243,1,-2018261085,3.0.3.80,3.0.3.80,11-26-2022,11/26/2022 9:50:47 AM,17:50:47,3.0.3.82,3,,,,,,,BlockProc2,List2,2,,,,,,,,,,,,,,,,,2.0,1.0,2.0,2.0,1.0,2.0,,,,ShapeProc2,List4,,,,,,,,,4.0,Button1.png,Button2.png,Button3.png,Button4.png,yellowcross4.png,,,,,,,{button3},0.0,,,,,,,0.0,TrialProc,ShapeList2,,,,8.0,1.0,4.0,1.0,{button3},10.0,33.0,226926.0,0.0,{Button3},1582.0,Shape
Wisconsin,1168,3,"<?xml version=""1.0""?>\n<Clock xmlns:dt=""urn:schemas-microsoft-com:datatypes""><Description dt:dt=""string"">E-Prime Primary Realtime Clock</Description><StartTime><Timestamp dt:dt=""int"">0</Timestamp><DateUtc dt:dt=""string"">2022-11-26T09:50:46Z</DateUtc></StartTime><FrequencyChanges><FrequencyChange><Frequency dt:dt=""r8"">10000000</Frequency><Timestamp dt:dt=""r8"">1733145470703</Timestamp><Current dt:dt=""r8"">0</Current><DateUtc dt:dt=""string"">2022-11-26T09:50:46Z</DateUtc></FrequencyChange></FrequencyChanges></Clock>\n",Wisconsin-1168-3,60.015,1.0.0.243,1,-2018261085,3.0.3.80,3.0.3.80,11-26-2022,11/26/2022 9:50:47 AM,17:50:47,3.0.3.82,3,,,,,,,BlockProc2,List2,2,,,,,,,,,,,,,,,,,2.0,1.0,2.0,2.0,1.0,2.0,,,,ShapeProc2,List4,,,,,,,,,5.0,Button1.png,Button2.png,Button3.png,Button4.png,Greenstar3.png,,,,,,,{button4},0.0,,,,,,,0.0,TrialProc,ShapeList2,,,,3.0,1.0,5.0,1.0,{button4},9.0,33.0,231092.0,0.0,{Button4},2776.0,Shape
Wisconsin,1168,3,"<?xml version=""1.0""?>\n<Clock xmlns:dt=""urn:schemas-microsoft-com:datatypes""><Description dt:dt=""string"">E-Prime Primary Realtime Clock</Description><StartTime><Timestamp dt:dt=""int"">0</Timestamp><DateUtc dt:dt=""string"">2022-11-26T09:50:46Z</DateUtc></StartTime><FrequencyChanges><FrequencyChange><Frequency dt:dt=""r8"">10000000</Frequency><Timestamp dt:dt=""r8"">1733145470703</Timestamp><Current dt:dt=""r8"">0</Current><DateUtc dt:dt=""string"">2022-11-26T09:50:46Z</DateUtc></FrequencyChange></FrequencyChanges></Clock>\n",Wisconsin-1168-3,60.015,1.0.0.243,1,-2018261085,3.0.3.80,3.0.3.80,11-26-2022,11/26/2022 9:50:47 AM,17:50:47,3.0.3.82,3,,,,,,,BlockProc2,List2,2,,,,,,,,,,,,,,,,,2.0,1.0,2.0,2.0,1.0,2.0,,,,ShapeProc2,List4,,,,,,,,,6.0,Button1.png,Button2.png,Button3.png,Button4.png,Bluetriangle2.png,,,,,,,{button2},0.0,,,,,,,0.0,TrialProc,ShapeList2,,,,2.0,1.0,6.0,1.0,{button2},10.0,33.0,236440.0,0.0,{Button2},1444.0,Shape
Wisconsin,1168,3,"<?xml version=""1.0""?>\n<Clock xmlns:dt=""urn:schemas-microsoft-com:datatypes""><Description dt:dt=""string"">E-Prime Primary Realtime Clock</Description><StartTime><Timestamp dt:dt=""int"">0</Timestamp><DateUtc dt:dt=""string"">2022-11-26T09:50:46Z</DateUtc></StartTime><FrequencyChanges><FrequencyChange><Frequency dt:dt=""r8"">10000000</Frequency><Timestamp dt:dt=""r8"">1733145470703</Timestamp><Current dt:dt=""r8"">0</Current><DateUtc dt:dt=""string"">2022-11-26T09:50:46Z</DateUtc></FrequencyChange></FrequencyChanges></Clock>\n",Wisconsin-1168-3,60.015,1.0.0.243,1,-2018261085,3.0.3.80,3.0.3.80,11-26-2022,11/26/2022 9:50:47 AM,17:50:47,3.0.3.82,3,,,,,,,BlockProc2,List2,2,,,,,,,,,,,,,,,,,2.0,1.0,2.0,2.0,1.0,2.0,,,,ShapeProc2,List4,,,,,,,,,7.0,Button1.png,Button2.png,Button3.png,Button4.png,Redstar3.png,,,,,,,{button4},0.0,,,,,,,0.0,TrialProc,ShapeList2,,,,6.0,1.0,7.0,1.0,{button4},10.0,33.0,240456.0,0.0,{Button4},1676.0,Shape
Wisconsin,1168,3,"<?xml version=""1.0""?>\n<Clock xmlns:dt=""urn:schemas-microsoft-com:datatypes""><Description dt:dt=""string"">E-Prime Primary Realtime Clock</Description><StartTime><Timestamp dt:dt=""int"">0</Timestamp><DateUtc dt:dt=""string"">2022-11-26T09:50:46Z</DateUtc></StartTime><FrequencyChanges><FrequencyChange><Frequency dt:dt=""r8"">10000000</Frequency><Timestamp dt:dt=""r8"">1733145470703</Timestamp><Current dt:dt=""r8"">0</Current><DateUtc dt:dt=""string"">2022-11-26T09:50:46Z</DateUtc></FrequencyChange></FrequencyChanges></Clock>\n",Wisconsin-1168-3,60.015,1.0.0.243,1,-2018261085,3.0.3.80,3.0.3.80,11-26-2022,11/26/2022 9:50:47 AM,17:50:47,3.0.3.82,3,,,,,,,BlockProc2,List2,2,,,,,,,,,,,,,,,,,2.0,1.0,2.0,2.0,1.0,2.0,,,,ShapeProc2,List4,,,,,,,,,8.0,Button1.png,Button2.png,Button3.png,Button4.png,Yellowtriangle1.png,,,,,,,{button2},0.0,,,,,,,0.0,TrialProc,ShapeList2,,,,10.0,1.0,8.0,1.0,{button2},10.0,33.0,244705.0,0.0,{Button2},1515.0,Shape
Wisconsin,1168,3,"<?xml version=""1.0""?>\n<Clock xmlns:dt=""urn:schemas-microsoft-com:datatypes""><Description dt:dt=""string"">E-Prime Primary Realtime Clock</Description><StartTime><Timestamp dt:dt=""int"">0</Timestamp><DateUtc dt:dt=""string"">2022-11-26T09:50:46Z</DateUtc></StartTime><FrequencyChanges><FrequencyChange><Frequency dt:dt=""r8"">10000000</Frequency><Timestamp dt:dt=""r8"">1733145470703</Timestamp><Current dt:dt=""r8"">0</Current><DateUtc dt:dt=""string"">2022-11-26T09:50:46Z</DateUtc></FrequencyChange></FrequencyChanges></Clock>\n",Wisconsin-1168-3,60.015,1.0.0.243,1,-2018261085,3.0.3.80,3.0.3.80,11-26-2022,11/26/2022 9:50:47 AM,17:50:47,3.0.3.82,3,,,,,,,BlockProc2,List2,2,,,,,,,,,,,,,,,,,2.0,1.0,2.0,2.0,1.0,2.0,,,,ShapeProc2,List4,,,,,,,,,9.0,Button1.png,Button2.png,Button3.png,Button4.png,Bluecircle3.png,,,,,,,{button1},0.0,,,,,,,0.0,TrialProc,ShapeList2,,,,1.0,1.0,9.0,1.0,{button1},2.0,33.0,248804.0,0.0,{Button1},1128.0,Shape
Wisconsin,1168,3,"<?xml version=""1.0""?>\n<Clock xmlns:dt=""urn:schemas-microsoft-com:datatypes""><Description dt:dt=""string"">E-Prime Primary Realtime Clock</Description><StartTime><Timestamp dt:dt=""int"">0</Timestamp><DateUtc dt:dt=""string"">2022-11-26T09:50:46Z</DateUtc></StartTime><FrequencyChanges><FrequencyChange><Frequency dt:dt=""r8"">10000000</Frequency><Timestamp dt:dt=""r8"">1733145470703</Timestamp><Current dt:dt=""r8"">0</Current><DateUtc dt:dt=""string"">2022-11-26T09:50:46Z</DateUtc></FrequencyChange></FrequencyChanges></Clock>\n",Wisconsin-1168-3,60.015,1.0.0.243,1,-2018261085,3.0.3.80,3.0.3.80,11-26-2022,11/26/2022 9:50:47 AM,17:50:47,3.0.3.82,3,,,,,,,BlockProc2,List2,2,,,,,,,,,,,,,,,,,2.0,1.0,2.0,2.0,1.0,2.0,,,,ShapeProc2,List4,,,,,,,,,10.0,Button1.png,Button2.png,Button3.png,Button4.png,Yellowstar2.png,,,,,,,{button4},0.0,,,,,,,0.0,TrialProc,ShapeList2,,,,9.0,1.0,10.0,1.0,{button4},9.0,33.0,252520.0,0.0,{Button4},2140.0,Shape
Wisconsin,1168,3,"<?xml version=""1.0""?>\n<Clock xmlns:dt=""urn:schemas-microsoft-com:datatypes""><Description dt:dt=""string"">E-Prime Primary Realtime Clock</Description><StartTime><Timestamp dt:dt=""int"">0</Timestamp><DateUtc dt:dt=""string"">2022-11-26T09:50:46Z</DateUtc></StartTime><FrequencyChanges><FrequencyChange><Frequency dt:dt=""r8"">10000000</Frequency><Timestamp dt:dt=""r8"">1733145470703</Timestamp><Current dt:dt=""r8"">0</Current><DateUtc dt:dt=""string"">2022-11-26T09:50:46Z</DateUtc></FrequencyChange></FrequencyChanges></Clock>\n",Wisconsin-1168-3,60.015,1.0.0.243,1,-2018261085,3.0.3.80,3.0.3.80,11-26-2022,11/26/2022 9:50:47 AM,17:50:47,3.0.3.82,3,,,,,,,BlockProc2,List2,3,,,,,,,,,,,,,,,,,2.0,1.0,2.0,1.0,1.0,3.0,,,,ColorProc2,List4,,,,,,,,,1.0,BUTTON1.png,BUTTON2.PNG,BUTTON3.png,BUTTON4.png,greenstar4.png,,,,5.0,1.0,1.0,{Button1},0.0,,,,,,,0.0,TrialProc,ColorList2,,,,,,,0.0,{Button1},11.0,33.0,257235.0,0.0,{Button4},2137.0,color
Wisconsin,1168,3,"<?xml version=""1.0""?>\n<Clock xmlns:dt=""urn:schemas-microsoft-com:datatypes""><Description dt:dt=""string"">E-Prime Primary Realtime Clock</Description><StartTime><Timestamp dt:dt=""int"">0</Timestamp><DateUtc dt:dt=""string"">2022-11-26T09:50:46Z</DateUtc></StartTime><FrequencyChanges><FrequencyChange><Frequency dt:dt=""r8"">10000000</Frequency><Timestamp dt:dt=""r8"">1733145470703</Timestamp><Current dt:dt=""r8"">0</Current><DateUtc dt:dt=""string"">2022-11-26T09:50:46Z</DateUtc></FrequencyChange></FrequencyChanges></Clock>\n",Wisconsin-1168-3,60.015,1.0.0.243,1,-2018261085,3.0.3.80,3.0.3.80,11-26-2022,11/26/2022 9:50:47 AM,17:50:47,3.0.3.82,3,,,,,,,BlockProc2,List2,3,,,,,,,,,,,,,,,,,2.0,1.0,2.0,1.0,1.0,3.0,,,,ColorProc2,List4,,,,,,,,,2.0,BUTTON1.png,BUTTON2.PNG,BUTTON3.png,BUTTON4.png,Redcircle2.png,,,,7.0,1.0,2.0,{Button3},0.0,,,,,,,0.0,TrialProc,ColorList2,,,,,,,0.0,{Button3},1.0,50.0,261968.0,0.0,{Button1},1220.0,color
Wisconsin,1168,3,"<?xml version=""1.0""?>\n<Clock xmlns:dt=""urn:schemas-microsoft-com:datatypes""><Description dt:dt=""string"">E-Prime Primary Realtime Clock</Description><StartTime><Timestamp dt:dt=""int"">0</Timestamp><DateUtc dt:dt=""string"">2022-11-26T09:50:46Z</DateUtc></StartTime><FrequencyChanges><FrequencyChange><Frequency dt:dt=""r8"">10000000</Frequency><Timestamp dt:dt=""r8"">1733145470703</Timestamp><Current dt:dt=""r8"">0</Current><DateUtc dt:dt=""string"">2022-11-26T09:50:46Z</DateUtc></FrequencyChange></FrequencyChanges></Clock>\n",Wisconsin-1168-3,60.015,1.0.0.243,1,-2018261085,3.0.3.80,3.0.3.80,11-26-2022,11/26/2022 9:50:47 AM,17:50:47,3.0.3.82,3,,,,,,,BlockProc2,List2,3,,,,,,,,,,,,,,,,,2.0,1.0,2.0,1.0,1.0,3.0,,,,ColorProc2,List4,,,,,,,,,3.0,BUTTON1.png,BUTTON2.PNG,BUTTON3.png,BUTTON4.png,Greencircle1.png,,,,3.0,1.0,3.0,{Button1},0.0,,,,,,,0.0,TrialProc,ColorList2,,,,,,,1.0,{Button1},1.0,33.0,265767.0,0.0,{Button1},1093.0,color
Wisconsin,1168,3,"<?xml version=""1.0""?>\n<Clock xmlns:dt=""urn:schemas-microsoft-com:datatypes""><Description dt:dt=""string"">E-Prime Primary Realtime Clock</Description><StartTime><Timestamp dt:dt=""int"">0</Timestamp><DateUtc dt:dt=""string"">2022-11-26T09:50:46Z</DateUtc></StartTime><FrequencyChanges><FrequencyChange><Frequency dt:dt=""r8"">10000000</Frequency><Timestamp dt:dt=""r8"">1733145470703</Timestamp><Current dt:dt=""r8"">0</Current><DateUtc dt:dt=""string"">2022-11-26T09:50:46Z</DateUtc></FrequencyChange></FrequencyChanges></Clock>\n",Wisconsin-1168-3,60.015,1.0.0.243,1,-2018261085,3.0.3.80,3.0.3.80,11-26-2022,11/26/2022 9:50:47 AM,17:50:47,3.0.3.82,3,,,,,,,BlockProc2,List2,3,,,,,,,,,,,,,,,,,2.0,1.0,2.0,1.0,1.0,3.0,,,,ColorProc2,List4,,,,,,,,,4.0,BUTTON1.png,BUTTON2.PNG,BUTTON3.png,BUTTON4.png,yellowtriangle3.png,,,,10.0,1.0,4.0,{Button2},0.0,,,,,,,0.0,TrialProc,ColorList2,,,,,,,1.0,{Button2},2.0,33.0,269432.0,0.0,{Button2},1268.0,color
Wisconsin,1168,3,"<?xml version=""1.0""?>\n<Clock xmlns:dt=""urn:schemas-microsoft-com:datatypes""><Description dt:dt=""string"">E-Prime Primary Realtime Clock</Description><StartTime><Timestamp dt:dt=""int"">0</Timestamp><DateUtc dt:dt=""string"">2022-11-26T09:50:46Z</DateUtc></StartTime><FrequencyChanges><FrequencyChange><Frequency dt:dt=""r8"">10000000</Frequency><Timestamp dt:dt=""r8"">1733145470703</Timestamp><Current dt:dt=""r8"">0</Current><DateUtc dt:dt=""string"">2022-11-26T09:50:46Z</DateUtc></FrequencyChange></FrequencyChanges></Clock>\n",Wisconsin-1168-3,60.015,1.0.0.243,1,-2018261085,3.0.3.80,3.0.3.80,11-26-2022,11/26/2022 9:50:47 AM,17:50:47,3.0.3.82,3,,,,,,,BlockProc2,List2,3,,,,,,,,,,,,,,,,,2.0,1.0,2.0,1.0,1.0,3.0,,,,ColorProc2,List4,,,,,,,,,5.0,BUTTON1.png,BUTTON2.PNG,BUTTON3.png,BUTTON4.png,bluecross1.png,,,,1.0,1.0,5.0,{Button4},0.0,,,,,,,0.0,TrialProc,ColorList2,,,,,,,0.0,{Button4},2.0,50.0,273298.0,0.0,{Button3},1642.0,color
Wisconsin,1168,3,"<?xml version=""1.0""?>\n<Clock xmlns:dt=""urn:schemas-microsoft-com:datatypes""><Description dt:dt=""string"">E-Prime Primary Realtime Clock</Description><StartTime><Timestamp dt:dt=""int"">0</Timestamp><DateUtc dt:dt=""string"">2022-11-26T09:50:46Z</DateUtc></StartTime><FrequencyChanges><FrequencyChange><Frequency dt:dt=""r8"">10000000</Frequency><Timestamp dt:dt=""r8"">1733145470703</Timestamp><Current dt:dt=""r8"">0</Current><DateUtc dt:dt=""string"">2022-11-26T09:50:46Z</DateUtc></FrequencyChange></FrequencyChanges></Clock>\n",Wisconsin-1168-3,60.015,1.0.0.243,1,-2018261085,3.0.3.80,3.0.3.80,11-26-2022,11/26/2022 9:50:47 AM,17:50:47,3.0.3.82,3,,,,,,,BlockProc2,List2,3,,,,,,,,,,,,,,,,,2.0,1.0,2.0,1.0,1.0,3.0,,,,ColorProc2,List4,,,,,,,,,6.0,BUTTON1.png,BUTTON2.PNG,BUTTON3.png,BUTTON4.png,bluestar3.png,,,,2.0,1.0,6.0,{Button4},0.0,,,,,,,0.0,TrialProc,ColorList2,,,,,,,1.0,{Button4},1.0,33.0,277514.0,0.0,{Button4},1346.0,color
Wisconsin,1168,3,"<?xml version=""1.0""?>\n<Clock xmlns:dt=""urn:schemas-microsoft-com:datatypes""><Description dt:dt=""string"">E-Prime Primary Realtime Clock</Description><StartTime><Timestamp dt:dt=""int"">0</Timestamp><DateUtc dt:dt=""string"">2022-11-26T09:50:46Z</DateUtc></StartTime><FrequencyChanges><FrequencyChange><Frequency dt:dt=""r8"">10000000</Frequency><Timestamp dt:dt=""r8"">1733145470703</Timestamp><Current dt:dt=""r8"">0</Current><DateUtc dt:dt=""string"">2022-11-26T09:50:46Z</DateUtc></FrequencyChange></FrequencyChanges></Clock>\n",Wisconsin-1168-3,60.015,1.0.0.243,1,-2018261085,3.0.3.80,3.0.3.80,11-26-2022,11/26/2022 9:50:47 AM,17:50:47,3.0.3.82,3,,,,,,,BlockProc2,List2,3,,,,,,,,,,,,,,,,,2.0,1.0,2.0,1.0,1.0,3.0,,,,ColorProc2,List4,,,,,,,,,7.0,BUTTON1.png,BUTTON2.PNG,BUTTON3.png,BUTTON4.png,greentriangle2.png,,,,6.0,1.0,7.0,{Button1},0.0,,,,,,,0.0,TrialProc,ColorList2,,,,,,,0.0,{Button1},2.0,33.0,281446.0,0.0,{Button2},1798.0,color
Wisconsin,1168,3,"<?xml version=""1.0""?>\n<Clock xmlns:dt=""urn:schemas-microsoft-com:datatypes""><Description dt:dt=""string"">E-Prime Primary Realtime Clock</Description><StartTime><Timestamp dt:dt=""int"">0</Timestamp><DateUtc dt:dt=""string"">2022-11-26T09:50:46Z</DateUtc></StartTime><FrequencyChanges><FrequencyChange><Frequency dt:dt=""r8"">10000000</Frequency><Timestamp dt:dt=""r8"">1733145470703</Timestamp><Current dt:dt=""r8"">0</Current><DateUtc dt:dt=""string"">2022-11-26T09:50:46Z</DateUtc></FrequencyChange></FrequencyChanges></Clock>\n",Wisconsin-1168-3,60.015,1.0.0.243,1,-2018261085,3.0.3.80,3.0.3.80,11-26-2022,11/26/2022 9:50:47 AM,17:50:47,3.0.3.82,3,,,,,,,BlockProc2,List2,3,,,,,,,,,,,,,,,,,2.0,1.0,2.0,1.0,1.0,3.0,,,,ColorProc2,List4,,,,,,,,,8.0,BUTTON1.png,BUTTON2.PNG,BUTTON3.png,BUTTON4.png,redstar4.png,,,,8.0,1.0,8.0,{Button3},0.0,,,,,,,0.0,TrialProc,ColorList2,,,,,,,1.0,{Button3},10.0,33.0,285828.0,0.0,{Button3},2976.0,color
Wisconsin,1168,3,"<?xml version=""1.0""?>\n<Clock xmlns:dt=""urn:schemas-microsoft-com:datatypes""><Description dt:dt=""string"">E-Prime Primary Realtime Clock</Description><StartTime><Timestamp dt:dt=""int"">0</Timestamp><DateUtc dt:dt=""string"">2022-11-26T09:50:46Z</DateUtc></StartTime><FrequencyChanges><FrequencyChange><Frequency dt:dt=""r8"">10000000</Frequency><Timestamp dt:dt=""r8"">1733145470703</Timestamp><Current dt:dt=""r8"">0</Current><DateUtc dt:dt=""string"">2022-11-26T09:50:46Z</DateUtc></FrequencyChange></FrequencyChanges></Clock>\n",Wisconsin-1168-3,60.015,1.0.0.243,1,-2018261085,3.0.3.80,3.0.3.80,11-26-2022,11/26/2022 9:50:47 AM,17:50:47,3.0.3.82,3,,,,,,,BlockProc2,List2,3,,,,,,,,,,,,,,,,,2.0,1.0,2.0,1.0,1.0,3.0,,,,ColorProc2,List4,,,,,,,,,9.0,BUTTON1.png,BUTTON2.PNG,BUTTON3.png,BUTTON4.png,greencross4.png,,,,4.0,1.0,9.0,{Button1},0.0,,,,,,,0.0,TrialProc,ColorList2,,,,,,,1.0,{Button1},2.0,33.0,291377.0,0.0,{Button1},1171.0,color
Wisconsin,1168,3,"<?xml version=""1.0""?>\n<Clock xmlns:dt=""urn:schemas-microsoft-com:datatypes""><Description dt:dt=""string"">E-Prime Primary Realtime Clock</Description><StartTime><Timestamp dt:dt=""int"">0</Timestamp><DateUtc dt:dt=""string"">2022-11-26T09:50:46Z</DateUtc></StartTime><FrequencyChanges><FrequencyChange><Frequency dt:dt=""r8"">10000000</Frequency><Timestamp dt:dt=""r8"">1733145470703</Timestamp><Current dt:dt=""r8"">0</Current><DateUtc dt:dt=""string"">2022-11-26T09:50:46Z</DateUtc></FrequencyChange></FrequencyChanges></Clock>\n",Wisconsin-1168-3,60.015,1.0.0.243,1,-2018261085,3.0.3.80,3.0.3.80,11-26-2022,11/26/2022 9:50:47 AM,17:50:47,3.0.3.82,3,,,,,,,BlockProc2,List2,3,,,,,,,,,,,,,,,,,2.0,1.0,2.0,1.0,1.0,3.0,,,,ColorProc2,List4,,,,,,,,,10.0,BUTTON1.png,BUTTON2.PNG,BUTTON3.png,BUTTON4.png,yellowcircle2.png,,,,9.0,1.0,10.0,{Button2},0.0,,,,,,,0.0,TrialProc,ColorList2,,,,,,,1.0,{Button2},1.0,50.0,295143.0,0.0,{Button2},1053.0,color
