ExperimentName,Subject,Session,Clock.Information,DataFile.Basename,Display.RefreshRate,ExperimentVersion,Group,RandomSeed,RuntimeVersion,RuntimeVersionExpected,SessionDate,SessionStartDateTimeUtc,SessionTime,StudioVersion,Block,List1,List1.Cycle,List1.Sample,List3,List3.Cycle,List3.Sample,Procedure[Block],Running[Block],Trial,CardIMG1[Trial],CardIMG2[Trial],CardIMG3[Trial],CardIMG4[Trial],CardStim[Trial],Category,CorrectAnswer[Trial],FeedbackDisplay2.ACC,FeedbackDisplay2.CRESP,FeedbackDisplay2.DurationError,FeedbackDisplay2.OnsetDelay,FeedbackDisplay2.OnsetTime,FeedbackDisplay2.OnsetToOnsetTime,FeedbackDisplay2.RESP,FeedbackDisplay2.RT,FeedbackDisplay2.RTTime,List2,List2.Cycle,List2.Sample,List4,List4.Cycle,List4.Sample,PracticeList,PracticeList.Cycle,PracticeList.Sample,Procedure[Trial],Running[Trial],FeedbackDisplay2.ACC,FeedbackDisplay2.CRESP,FeedbackDisplay2.DurationError,FeedbackDisplay2.OnsetDelay,FeedbackDisplay2.OnsetTime,FeedbackDisplay2.OnsetToOnsetTime,FeedbackDisplay2.RESP,FeedbackDisplay2.RT,SubTrial,CardIMG1[SubTrial],CardIMG2[SubTrial],CardIMG3[SubTrial],CardIMG4[SubTrial],CardStim[SubTrial],ColorList,ColorList.Cycle,ColorList.Sample,ColorList2,ColorList2.Cycle,ColorList2.Sample,CorrectAnswer[SubTrial],NonPerseverativeError,NumberList,NumberList.Cycle,NumberList.Sample,NumberList1,NumberList1.Cycle,NumberList1.Sample,PerseverativeError,Procedure[SubTrial],Running[SubTrial],ShapeList,ShapeList.Cycle,ShapeList.Sample,ShapeList1,ShapeList1.Cycle,ShapeList1.Sample,Stimulus.ACC,Stimulus.CRESP,Stimulus.DurationError,Stimulus.OnsetDelay,Stimulus.OnsetTime,Stimulus.OnsetToOnsetTime,Stimulus.RESP,Stimulus.RT,TrialType
Wisconsin,1163,4,"<?xml version=""1.0""?>\n<Clock xmlns:dt=""urn:schemas-microsoft-com:datatypes""><Description dt:dt=""string"">E-Prime Primary Realtime Clock</Description><StartTime><Timestamp dt:dt=""int"">0</Timestamp><DateUtc dt:dt=""string"">2023-02-10T10:39:28Z</DateUtc></StartTime><FrequencyChanges><FrequencyChange><Frequency dt:dt=""r8"">10000000</Frequency><Timestamp dt:dt=""r8"">1898126476</Timestamp><Current dt:dt=""r8"">0</Current><DateUtc dt:dt=""string"">2023-02-10T10:39:28Z</DateUtc></FrequencyChange></FrequencyChanges></Clock>\n",Wisconsin-1163-4,60.012,1.0.0.260,1,1900782088,3.0.3.80,3.0.3.80,02-10-2023,,18:39:29,3.0.3.82,1,1.0,1.0,1.0,,,,Practiceploc,List1,1,Button1.png,Button2.png,Button3.png,Button4.png,Greencircle3.png,顏色,{button1},1.0,{button1},1.0,50.0,122842.0,0.0,{Button1},2330.0,125172.0,,,,,,,1.0,1.0,1.0,PracticeTrialProc,PracticeList,1.0,{button1},1.0,50.0,122842.0,0.0,{Button1},2330.0,,,,,,,,,,,,,,,,,,,,,,,,,,,,,,,,,,,,,,
Wisconsin,1163,4,"<?xml version=""1.0""?>\n<Clock xmlns:dt=""urn:schemas-microsoft-com:datatypes""><Description dt:dt=""string"">E-Prime Primary Realtime Clock</Description><StartTime><Timestamp dt:dt=""int"">0</Timestamp><DateUtc dt:dt=""string"">2023-02-10T10:39:28Z</DateUtc></StartTime><FrequencyChanges><FrequencyChange><Frequency dt:dt=""r8"">10000000</Frequency><Timestamp dt:dt=""r8"">1898126476</Timestamp><Current dt:dt=""r8"">0</Current><DateUtc dt:dt=""string"">2023-02-10T10:39:28Z</DateUtc></FrequencyChange></FrequencyChanges></Clock>\n",Wisconsin-1163-4,60.012,1.0.0.260,1,1900782088,3.0.3.80,3.0.3.80,02-10-2023,,18:39:29,3.0.3.82,1,1.0,1.0,1.0,,,,Practiceploc,List1,2,Button1.png,Button2.png,Button3.png,Button4.png,Redstar2.png,顏色,{button3},1.0,{button3},11.0,33.0,127807.0,0.0,{Button3},2005.0,129812.0,,,,,,,2.0,1.0,2.0,PracticeTrialProc,PracticeList,1.0,{button3},11.0,33.0,127807.0,0.0,{Button3},2005.0,,,,,,,,,,,,,,,,,,,,,,,,,,,,,,,,,,,,,,
Wisconsin,1163,4,"<?xml version=""1.0""?>\n<Clock xmlns:dt=""urn:schemas-microsoft-com:datatypes""><Description dt:dt=""string"">E-Prime Primary Realtime Clock</Description><StartTime><Timestamp dt:dt=""int"">0</Timestamp><DateUtc dt:dt=""string"">2023-02-10T10:39:28Z</DateUtc></StartTime><FrequencyChanges><FrequencyChange><Frequency dt:dt=""r8"">10000000</Frequency><Timestamp dt:dt=""r8"">1898126476</Timestamp><Current dt:dt=""r8"">0</Current><DateUtc dt:dt=""string"">2023-02-10T10:39:28Z</DateUtc></FrequencyChange></FrequencyChanges></Clock>\n",Wisconsin-1163-4,60.012,1.0.0.260,1,1900782088,3.0.3.80,3.0.3.80,02-10-2023,,18:39:29,3.0.3.82,1,1.0,1.0,1.0,,,,Practiceploc,List1,3,Button1.png,Button2.png,Button3.png,Button4.png,Bluetriangle1.png,形狀,{button2},1.0,{button2},1.0,50.0,132406.0,0.0,{Button2},2566.0,134972.0,,,,,,,3.0,1.0,3.0,PracticeTrialProc,PracticeList,1.0,{button2},1.0,50.0,132406.0,0.0,{Button2},2566.0,,,,,,,,,,,,,,,,,,,,,,,,,,,,,,,,,,,,,,
Wisconsin,1163,4,"<?xml version=""1.0""?>\n<Clock xmlns:dt=""urn:schemas-microsoft-com:datatypes""><Description dt:dt=""string"">E-Prime Primary Realtime Clock</Description><StartTime><Timestamp dt:dt=""int"">0</Timestamp><DateUtc dt:dt=""string"">2023-02-10T10:39:28Z</DateUtc></StartTime><FrequencyChanges><FrequencyChange><Frequency dt:dt=""r8"">10000000</Frequency><Timestamp dt:dt=""r8"">1898126476</Timestamp><Current dt:dt=""r8"">0</Current><DateUtc dt:dt=""string"">2023-02-10T10:39:28Z</DateUtc></FrequencyChange></FrequencyChanges></Clock>\n",Wisconsin-1163-4,60.012,1.0.0.260,1,1900782088,3.0.3.80,3.0.3.80,02-10-2023,,18:39:29,3.0.3.82,1,1.0,1.0,1.0,,,,Practiceploc,List1,4,Button1.png,Button2.png,Button3.png,Button4.png,greenstar2.png,形狀,{Button4},1.0,{Button4},1.0,33.0,137555.0,0.0,{Button4},2481.0,140036.0,,,,,,,4.0,1.0,4.0,PracticeTrialProc,PracticeList,1.0,{Button4},1.0,33.0,137555.0,0.0,{Button4},2481.0,,,,,,,,,,,,,,,,,,,,,,,,,,,,,,,,,,,,,,
Wisconsin,1163,4,"<?xml version=""1.0""?>\n<Clock xmlns:dt=""urn:schemas-microsoft-com:datatypes""><Description dt:dt=""string"">E-Prime Primary Realtime Clock</Description><StartTime><Timestamp dt:dt=""int"">0</Timestamp><DateUtc dt:dt=""string"">2023-02-10T10:39:28Z</DateUtc></StartTime><FrequencyChanges><FrequencyChange><Frequency dt:dt=""r8"">10000000</Frequency><Timestamp dt:dt=""r8"">1898126476</Timestamp><Current dt:dt=""r8"">0</Current><DateUtc dt:dt=""string"">2023-02-10T10:39:28Z</DateUtc></FrequencyChange></FrequencyChanges></Clock>\n",Wisconsin-1163-4,60.012,1.0.0.260,1,1900782088,3.0.3.80,3.0.3.80,02-10-2023,,18:39:29,3.0.3.82,1,1.0,1.0,1.0,,,,Practiceploc,List1,5,Button1.png,Button2.png,Button3.png,Button4.png,BlueCross4.png,圖案數目,{Button2},1.0,{Button2},10.0,33.0,142620.0,0.0,{Button2},3032.0,145652.0,,,,,,,5.0,1.0,5.0,PracticeTrialProc,PracticeList,1.0,{Button2},10.0,33.0,142620.0,0.0,{Button2},3032.0,,,,,,,,,,,,,,,,,,,,,,,,,,,,,,,,,,,,,,
Wisconsin,1163,4,"<?xml version=""1.0""?>\n<Clock xmlns:dt=""urn:schemas-microsoft-com:datatypes""><Description dt:dt=""string"">E-Prime Primary Realtime Clock</Description><StartTime><Timestamp dt:dt=""int"">0</Timestamp><DateUtc dt:dt=""string"">2023-02-10T10:39:28Z</DateUtc></StartTime><FrequencyChanges><FrequencyChange><Frequency dt:dt=""r8"">10000000</Frequency><Timestamp dt:dt=""r8"">1898126476</Timestamp><Current dt:dt=""r8"">0</Current><DateUtc dt:dt=""string"">2023-02-10T10:39:28Z</DateUtc></FrequencyChange></FrequencyChanges></Clock>\n",Wisconsin-1163-4,60.012,1.0.0.260,1,1900782088,3.0.3.80,3.0.3.80,02-10-2023,,18:39:29,3.0.3.82,1,1.0,1.0,1.0,,,,Practiceploc,List1,6,Button1.png,Button2.png,Button3.png,Button4.png,yellowcircle2.png,圖案數目,{Button1},1.0,{Button1},1.0,33.0,148236.0,0.0,{Button1},2136.0,150372.0,,,,,,,6.0,1.0,6.0,PracticeTrialProc,PracticeList,1.0,{Button1},1.0,33.0,148236.0,0.0,{Button1},2136.0,,,,,,,,,,,,,,,,,,,,,,,,,,,,,,,,,,,,,,
Wisconsin,1163,4,"<?xml version=""1.0""?>\n<Clock xmlns:dt=""urn:schemas-microsoft-com:datatypes""><Description dt:dt=""string"">E-Prime Primary Realtime Clock</Description><StartTime><Timestamp dt:dt=""int"">0</Timestamp><DateUtc dt:dt=""string"">2023-02-10T10:39:28Z</DateUtc></StartTime><FrequencyChanges><FrequencyChange><Frequency dt:dt=""r8"">10000000</Frequency><Timestamp dt:dt=""r8"">1898126476</Timestamp><Current dt:dt=""r8"">0</Current><DateUtc dt:dt=""string"">2023-02-10T10:39:28Z</DateUtc></FrequencyChange></FrequencyChanges></Clock>\n",Wisconsin-1163-4,60.012,1.0.0.260,1,1900782088,3.0.3.80,3.0.3.80,02-10-2023,,18:39:29,3.0.3.82,2,,,,,,,BlockProc2,List2,1,,,,,,,,,,,,,,,,,2.0,1.0,1.0,1.0,1.0,1.0,,,,ColorProc2,List4,,,,,,,,,1.0,BUTTON1.png,BUTTON2.PNG,BUTTON3.png,BUTTON4.png,redstar4.png,,,,8.0,1.0,1.0,{Button3},0.0,,,,,,,0.0,TrialProc,ColorList2,,,,,,,1.0,{Button3},1.0,33.0,160466.0,0.0,{Button3},4298.0,color
Wisconsin,1163,4,"<?xml version=""1.0""?>\n<Clock xmlns:dt=""urn:schemas-microsoft-com:datatypes""><Description dt:dt=""string"">E-Prime Primary Realtime Clock</Description><StartTime><Timestamp dt:dt=""int"">0</Timestamp><DateUtc dt:dt=""string"">2023-02-10T10:39:28Z</DateUtc></StartTime><FrequencyChanges><FrequencyChange><Frequency dt:dt=""r8"">10000000</Frequency><Timestamp dt:dt=""r8"">1898126476</Timestamp><Current dt:dt=""r8"">0</Current><DateUtc dt:dt=""string"">2023-02-10T10:39:28Z</DateUtc></FrequencyChange></FrequencyChanges></Clock>\n",Wisconsin-1163-4,60.012,1.0.0.260,1,1900782088,3.0.3.80,3.0.3.80,02-10-2023,,18:39:29,3.0.3.82,2,,,,,,,BlockProc2,List2,1,,,,,,,,,,,,,,,,,2.0,1.0,1.0,1.0,1.0,1.0,,,,ColorProc2,List4,,,,,,,,,2.0,BUTTON1.png,BUTTON2.PNG,BUTTON3.png,BUTTON4.png,greencross4.png,,,,4.0,1.0,2.0,{Button1},0.0,,,,,,,0.0,TrialProc,ColorList2,,,,,,,1.0,{Button1},1.0,33.0,167348.0,0.0,{Button1},2216.0,color
Wisconsin,1163,4,"<?xml version=""1.0""?>\n<Clock xmlns:dt=""urn:schemas-microsoft-com:datatypes""><Description dt:dt=""string"">E-Prime Primary Realtime Clock</Description><StartTime><Timestamp dt:dt=""int"">0</Timestamp><DateUtc dt:dt=""string"">2023-02-10T10:39:28Z</DateUtc></StartTime><FrequencyChanges><FrequencyChange><Frequency dt:dt=""r8"">10000000</Frequency><Timestamp dt:dt=""r8"">1898126476</Timestamp><Current dt:dt=""r8"">0</Current><DateUtc dt:dt=""string"">2023-02-10T10:39:28Z</DateUtc></FrequencyChange></FrequencyChanges></Clock>\n",Wisconsin-1163-4,60.012,1.0.0.260,1,1900782088,3.0.3.80,3.0.3.80,02-10-2023,,18:39:29,3.0.3.82,2,,,,,,,BlockProc2,List2,1,,,,,,,,,,,,,,,,,2.0,1.0,1.0,1.0,1.0,1.0,,,,ColorProc2,List4,,,,,,,,,3.0,BUTTON1.png,BUTTON2.PNG,BUTTON3.png,BUTTON4.png,bluestar3.png,,,,2.0,1.0,3.0,{Button4},0.0,,,,,,,0.0,TrialProc,ColorList2,,,,,,,1.0,{Button4},10.0,33.0,172130.0,0.0,{Button4},1354.0,color
Wisconsin,1163,4,"<?xml version=""1.0""?>\n<Clock xmlns:dt=""urn:schemas-microsoft-com:datatypes""><Description dt:dt=""string"">E-Prime Primary Realtime Clock</Description><StartTime><Timestamp dt:dt=""int"">0</Timestamp><DateUtc dt:dt=""string"">2023-02-10T10:39:28Z</DateUtc></StartTime><FrequencyChanges><FrequencyChange><Frequency dt:dt=""r8"">10000000</Frequency><Timestamp dt:dt=""r8"">1898126476</Timestamp><Current dt:dt=""r8"">0</Current><DateUtc dt:dt=""string"">2023-02-10T10:39:28Z</DateUtc></FrequencyChange></FrequencyChanges></Clock>\n",Wisconsin-1163-4,60.012,1.0.0.260,1,1900782088,3.0.3.80,3.0.3.80,02-10-2023,,18:39:29,3.0.3.82,2,,,,,,,BlockProc2,List2,1,,,,,,,,,,,,,,,,,2.0,1.0,1.0,1.0,1.0,1.0,,,,ColorProc2,List4,,,,,,,,,4.0,BUTTON1.png,BUTTON2.PNG,BUTTON3.png,BUTTON4.png,Greencircle1.png,,,,3.0,1.0,4.0,{Button1},0.0,,,,,,,0.0,TrialProc,ColorList2,,,,,,,1.0,{Button1},10.0,50.0,176079.0,0.0,{Button1},1301.0,color
Wisconsin,1163,4,"<?xml version=""1.0""?>\n<Clock xmlns:dt=""urn:schemas-microsoft-com:datatypes""><Description dt:dt=""string"">E-Prime Primary Realtime Clock</Description><StartTime><Timestamp dt:dt=""int"">0</Timestamp><DateUtc dt:dt=""string"">2023-02-10T10:39:28Z</DateUtc></StartTime><FrequencyChanges><FrequencyChange><Frequency dt:dt=""r8"">10000000</Frequency><Timestamp dt:dt=""r8"">1898126476</Timestamp><Current dt:dt=""r8"">0</Current><DateUtc dt:dt=""string"">2023-02-10T10:39:28Z</DateUtc></FrequencyChange></FrequencyChanges></Clock>\n",Wisconsin-1163-4,60.012,1.0.0.260,1,1900782088,3.0.3.80,3.0.3.80,02-10-2023,,18:39:29,3.0.3.82,2,,,,,,,BlockProc2,List2,1,,,,,,,,,,,,,,,,,2.0,1.0,1.0,1.0,1.0,1.0,,,,ColorProc2,List4,,,,,,,,,5.0,BUTTON1.png,BUTTON2.PNG,BUTTON3.png,BUTTON4.png,bluecross1.png,,,,1.0,1.0,5.0,{Button4},0.0,,,,,,,0.0,TrialProc,ColorList2,,,,,,,0.0,{Button4},1.0,50.0,179978.0,0.0,{Button3},1866.0,color
Wisconsin,1163,4,"<?xml version=""1.0""?>\n<Clock xmlns:dt=""urn:schemas-microsoft-com:datatypes""><Description dt:dt=""string"">E-Prime Primary Realtime Clock</Description><StartTime><Timestamp dt:dt=""int"">0</Timestamp><DateUtc dt:dt=""string"">2023-02-10T10:39:28Z</DateUtc></StartTime><FrequencyChanges><FrequencyChange><Frequency dt:dt=""r8"">10000000</Frequency><Timestamp dt:dt=""r8"">1898126476</Timestamp><Current dt:dt=""r8"">0</Current><DateUtc dt:dt=""string"">2023-02-10T10:39:28Z</DateUtc></FrequencyChange></FrequencyChanges></Clock>\n",Wisconsin-1163-4,60.012,1.0.0.260,1,1900782088,3.0.3.80,3.0.3.80,02-10-2023,,18:39:29,3.0.3.82,2,,,,,,,BlockProc2,List2,1,,,,,,,,,,,,,,,,,2.0,1.0,1.0,1.0,1.0,1.0,,,,ColorProc2,List4,,,,,,,,,6.0,BUTTON1.png,BUTTON2.PNG,BUTTON3.png,BUTTON4.png,yellowcircle2.png,,,,9.0,1.0,6.0,{Button2},0.0,,,,,,,0.0,TrialProc,ColorList2,,,,,,,0.0,{Button2},2.0,49.0,184443.0,0.0,{Button1},2433.0,color
Wisconsin,1163,4,"<?xml version=""1.0""?>\n<Clock xmlns:dt=""urn:schemas-microsoft-com:datatypes""><Description dt:dt=""string"">E-Prime Primary Realtime Clock</Description><StartTime><Timestamp dt:dt=""int"">0</Timestamp><DateUtc dt:dt=""string"">2023-02-10T10:39:28Z</DateUtc></StartTime><FrequencyChanges><FrequencyChange><Frequency dt:dt=""r8"">10000000</Frequency><Timestamp dt:dt=""r8"">1898126476</Timestamp><Current dt:dt=""r8"">0</Current><DateUtc dt:dt=""string"">2023-02-10T10:39:28Z</DateUtc></FrequencyChange></FrequencyChanges></Clock>\n",Wisconsin-1163-4,60.012,1.0.0.260,1,1900782088,3.0.3.80,3.0.3.80,02-10-2023,,18:39:29,3.0.3.82,2,,,,,,,BlockProc2,List2,1,,,,,,,,,,,,,,,,,2.0,1.0,1.0,1.0,1.0,1.0,,,,ColorProc2,List4,,,,,,,,,7.0,BUTTON1.png,BUTTON2.PNG,BUTTON3.png,BUTTON4.png,yellowtriangle3.png,,,,10.0,1.0,7.0,{Button2},0.0,,,,,,,0.0,TrialProc,ColorList2,,,,,,,1.0,{Button2},2.0,33.0,189459.0,0.0,{Button2},1217.0,color
Wisconsin,1163,4,"<?xml version=""1.0""?>\n<Clock xmlns:dt=""urn:schemas-microsoft-com:datatypes""><Description dt:dt=""string"">E-Prime Primary Realtime Clock</Description><StartTime><Timestamp dt:dt=""int"">0</Timestamp><DateUtc dt:dt=""string"">2023-02-10T10:39:28Z</DateUtc></StartTime><FrequencyChanges><FrequencyChange><Frequency dt:dt=""r8"">10000000</Frequency><Timestamp dt:dt=""r8"">1898126476</Timestamp><Current dt:dt=""r8"">0</Current><DateUtc dt:dt=""string"">2023-02-10T10:39:28Z</DateUtc></FrequencyChange></FrequencyChanges></Clock>\n",Wisconsin-1163-4,60.012,1.0.0.260,1,1900782088,3.0.3.80,3.0.3.80,02-10-2023,,18:39:29,3.0.3.82,2,,,,,,,BlockProc2,List2,1,,,,,,,,,,,,,,,,,2.0,1.0,1.0,1.0,1.0,1.0,,,,ColorProc2,List4,,,,,,,,,8.0,BUTTON1.png,BUTTON2.PNG,BUTTON3.png,BUTTON4.png,greentriangle2.png,,,,6.0,1.0,8.0,{Button1},0.0,,,,,,,0.0,TrialProc,ColorList2,,,,,,,0.0,{Button1},10.0,33.0,193241.0,0.0,{Button2},2667.0,color
Wisconsin,1163,4,"<?xml version=""1.0""?>\n<Clock xmlns:dt=""urn:schemas-microsoft-com:datatypes""><Description dt:dt=""string"">E-Prime Primary Realtime Clock</Description><StartTime><Timestamp dt:dt=""int"">0</Timestamp><DateUtc dt:dt=""string"">2023-02-10T10:39:28Z</DateUtc></StartTime><FrequencyChanges><FrequencyChange><Frequency dt:dt=""r8"">10000000</Frequency><Timestamp dt:dt=""r8"">1898126476</Timestamp><Current dt:dt=""r8"">0</Current><DateUtc dt:dt=""string"">2023-02-10T10:39:28Z</DateUtc></FrequencyChange></FrequencyChanges></Clock>\n",Wisconsin-1163-4,60.012,1.0.0.260,1,1900782088,3.0.3.80,3.0.3.80,02-10-2023,,18:39:29,3.0.3.82,2,,,,,,,BlockProc2,List2,1,,,,,,,,,,,,,,,,,2.0,1.0,1.0,1.0,1.0,1.0,,,,ColorProc2,List4,,,,,,,,,9.0,BUTTON1.png,BUTTON2.PNG,BUTTON3.png,BUTTON4.png,Redcircle2.png,,,,7.0,1.0,9.0,{Button3},0.0,,,,,,,0.0,TrialProc,ColorList2,,,,,,,0.0,{Button3},2.0,33.0,198490.0,0.0,{Button1},1482.0,color
Wisconsin,1163,4,"<?xml version=""1.0""?>\n<Clock xmlns:dt=""urn:schemas-microsoft-com:datatypes""><Description dt:dt=""string"">E-Prime Primary Realtime Clock</Description><StartTime><Timestamp dt:dt=""int"">0</Timestamp><DateUtc dt:dt=""string"">2023-02-10T10:39:28Z</DateUtc></StartTime><FrequencyChanges><FrequencyChange><Frequency dt:dt=""r8"">10000000</Frequency><Timestamp dt:dt=""r8"">1898126476</Timestamp><Current dt:dt=""r8"">0</Current><DateUtc dt:dt=""string"">2023-02-10T10:39:28Z</DateUtc></FrequencyChange></FrequencyChanges></Clock>\n",Wisconsin-1163-4,60.012,1.0.0.260,1,1900782088,3.0.3.80,3.0.3.80,02-10-2023,,18:39:29,3.0.3.82,2,,,,,,,BlockProc2,List2,1,,,,,,,,,,,,,,,,,2.0,1.0,1.0,1.0,1.0,1.0,,,,ColorProc2,List4,,,,,,,,,10.0,BUTTON1.png,BUTTON2.PNG,BUTTON3.png,BUTTON4.png,greenstar4.png,,,,5.0,1.0,10.0,{Button1},0.0,,,,,,,0.0,TrialProc,ColorList2,,,,,,,0.0,{Button1},1.0,33.0,202556.0,0.0,{Button4},2520.0,color
Wisconsin,1163,4,"<?xml version=""1.0""?>\n<Clock xmlns:dt=""urn:schemas-microsoft-com:datatypes""><Description dt:dt=""string"">E-Prime Primary Realtime Clock</Description><StartTime><Timestamp dt:dt=""int"">0</Timestamp><DateUtc dt:dt=""string"">2023-02-10T10:39:28Z</DateUtc></StartTime><FrequencyChanges><FrequencyChange><Frequency dt:dt=""r8"">10000000</Frequency><Timestamp dt:dt=""r8"">1898126476</Timestamp><Current dt:dt=""r8"">0</Current><DateUtc dt:dt=""string"">2023-02-10T10:39:28Z</DateUtc></FrequencyChange></FrequencyChanges></Clock>\n",Wisconsin-1163-4,60.012,1.0.0.260,1,1900782088,3.0.3.80,3.0.3.80,02-10-2023,,18:39:29,3.0.3.82,2,,,,,,,BlockProc2,List2,2,,,,,,,,,,,,,,,,,2.0,1.0,1.0,2.0,1.0,2.0,,,,ShapeProc2,List4,,,,,,,,,1.0,Button1.png,Button2.png,Button3.png,Button4.png,Greenstar3.png,,,,,,,{button4},0.0,,,,,,,0.0,TrialProc,ShapeList2,,,,3.0,1.0,1.0,0.0,{button4},10.0,50.0,207671.0,0.0,{Button1},2861.0,Shape
Wisconsin,1163,4,"<?xml version=""1.0""?>\n<Clock xmlns:dt=""urn:schemas-microsoft-com:datatypes""><Description dt:dt=""string"">E-Prime Primary Realtime Clock</Description><StartTime><Timestamp dt:dt=""int"">0</Timestamp><DateUtc dt:dt=""string"">2023-02-10T10:39:28Z</DateUtc></StartTime><FrequencyChanges><FrequencyChange><Frequency dt:dt=""r8"">10000000</Frequency><Timestamp dt:dt=""r8"">1898126476</Timestamp><Current dt:dt=""r8"">0</Current><DateUtc dt:dt=""string"">2023-02-10T10:39:28Z</DateUtc></FrequencyChange></FrequencyChanges></Clock>\n",Wisconsin-1163-4,60.012,1.0.0.260,1,1900782088,3.0.3.80,3.0.3.80,02-10-2023,,18:39:29,3.0.3.82,2,,,,,,,BlockProc2,List2,2,,,,,,,,,,,,,,,,,2.0,1.0,1.0,2.0,1.0,2.0,,,,ShapeProc2,List4,,,,,,,,,2.0,Button1.png,Button2.png,Button3.png,Button4.png,Redtriangle3.png,,,,,,,{button2},0.0,,,,,,,0.0,TrialProc,ShapeList2,,,,7.0,1.0,2.0,1.0,{button2},2.0,49.0,213136.0,0.0,{Button2},1452.0,Shape
Wisconsin,1163,4,"<?xml version=""1.0""?>\n<Clock xmlns:dt=""urn:schemas-microsoft-com:datatypes""><Description dt:dt=""string"">E-Prime Primary Realtime Clock</Description><StartTime><Timestamp dt:dt=""int"">0</Timestamp><DateUtc dt:dt=""string"">2023-02-10T10:39:28Z</DateUtc></StartTime><FrequencyChanges><FrequencyChange><Frequency dt:dt=""r8"">10000000</Frequency><Timestamp dt:dt=""r8"">1898126476</Timestamp><Current dt:dt=""r8"">0</Current><DateUtc dt:dt=""string"">2023-02-10T10:39:28Z</DateUtc></FrequencyChange></FrequencyChanges></Clock>\n",Wisconsin-1163-4,60.012,1.0.0.260,1,1900782088,3.0.3.80,3.0.3.80,02-10-2023,,18:39:29,3.0.3.82,2,,,,,,,BlockProc2,List2,2,,,,,,,,,,,,,,,,,2.0,1.0,1.0,2.0,1.0,2.0,,,,ShapeProc2,List4,,,,,,,,,3.0,Button1.png,Button2.png,Button3.png,Button4.png,Redcross2.png,,,,,,,{button3},0.0,,,,,,,0.0,TrialProc,ShapeList2,,,,5.0,1.0,3.0,1.0,{button3},1.0,33.0,217169.0,0.0,{Button3},1299.0,Shape
Wisconsin,1163,4,"<?xml version=""1.0""?>\n<Clock xmlns:dt=""urn:schemas-microsoft-com:datatypes""><Description dt:dt=""string"">E-Prime Primary Realtime Clock</Description><StartTime><Timestamp dt:dt=""int"">0</Timestamp><DateUtc dt:dt=""string"">2023-02-10T10:39:28Z</DateUtc></StartTime><FrequencyChanges><FrequencyChange><Frequency dt:dt=""r8"">10000000</Frequency><Timestamp dt:dt=""r8"">1898126476</Timestamp><Current dt:dt=""r8"">0</Current><DateUtc dt:dt=""string"">2023-02-10T10:39:28Z</DateUtc></FrequencyChange></FrequencyChanges></Clock>\n",Wisconsin-1163-4,60.012,1.0.0.260,1,1900782088,3.0.3.80,3.0.3.80,02-10-2023,,18:39:29,3.0.3.82,2,,,,,,,BlockProc2,List2,2,,,,,,,,,,,,,,,,,2.0,1.0,1.0,2.0,1.0,2.0,,,,ShapeProc2,List4,,,,,,,,,4.0,Button1.png,Button2.png,Button3.png,Button4.png,Redstar3.png,,,,,,,{button4},0.0,,,,,,,0.0,TrialProc,ShapeList2,,,,6.0,1.0,4.0,1.0,{button4},10.0,33.0,221051.0,0.0,{Button4},1777.0,Shape
Wisconsin,1163,4,"<?xml version=""1.0""?>\n<Clock xmlns:dt=""urn:schemas-microsoft-com:datatypes""><Description dt:dt=""string"">E-Prime Primary Realtime Clock</Description><StartTime><Timestamp dt:dt=""int"">0</Timestamp><DateUtc dt:dt=""string"">2023-02-10T10:39:28Z</DateUtc></StartTime><FrequencyChanges><FrequencyChange><Frequency dt:dt=""r8"">10000000</Frequency><Timestamp dt:dt=""r8"">1898126476</Timestamp><Current dt:dt=""r8"">0</Current><DateUtc dt:dt=""string"">2023-02-10T10:39:28Z</DateUtc></FrequencyChange></FrequencyChanges></Clock>\n",Wisconsin-1163-4,60.012,1.0.0.260,1,1900782088,3.0.3.80,3.0.3.80,02-10-2023,,18:39:29,3.0.3.82,2,,,,,,,BlockProc2,List2,2,,,,,,,,,,,,,,,,,2.0,1.0,1.0,2.0,1.0,2.0,,,,ShapeProc2,List4,,,,,,,,,5.0,Button1.png,Button2.png,Button3.png,Button4.png,yellowcross4.png,,,,,,,{button3},0.0,,,,,,,0.0,TrialProc,ShapeList2,,,,8.0,1.0,5.0,1.0,{button3},9.0,50.0,225417.0,0.0,{Button3},1723.0,Shape
Wisconsin,1163,4,"<?xml version=""1.0""?>\n<Clock xmlns:dt=""urn:schemas-microsoft-com:datatypes""><Description dt:dt=""string"">E-Prime Primary Realtime Clock</Description><StartTime><Timestamp dt:dt=""int"">0</Timestamp><DateUtc dt:dt=""string"">2023-02-10T10:39:28Z</DateUtc></StartTime><FrequencyChanges><FrequencyChange><Frequency dt:dt=""r8"">10000000</Frequency><Timestamp dt:dt=""r8"">1898126476</Timestamp><Current dt:dt=""r8"">0</Current><DateUtc dt:dt=""string"">2023-02-10T10:39:28Z</DateUtc></FrequencyChange></FrequencyChanges></Clock>\n",Wisconsin-1163-4,60.012,1.0.0.260,1,1900782088,3.0.3.80,3.0.3.80,02-10-2023,,18:39:29,3.0.3.82,2,,,,,,,BlockProc2,List2,2,,,,,,,,,,,,,,,,,2.0,1.0,1.0,2.0,1.0,2.0,,,,ShapeProc2,List4,,,,,,,,,6.0,Button1.png,Button2.png,Button3.png,Button4.png,Bluetriangle2.png,,,,,,,{button2},0.0,,,,,,,0.0,TrialProc,ShapeList2,,,,2.0,1.0,6.0,1.0,{button2},9.0,33.0,229716.0,0.0,{Button2},1712.0,Shape
Wisconsin,1163,4,"<?xml version=""1.0""?>\n<Clock xmlns:dt=""urn:schemas-microsoft-com:datatypes""><Description dt:dt=""string"">E-Prime Primary Realtime Clock</Description><StartTime><Timestamp dt:dt=""int"">0</Timestamp><DateUtc dt:dt=""string"">2023-02-10T10:39:28Z</DateUtc></StartTime><FrequencyChanges><FrequencyChange><Frequency dt:dt=""r8"">10000000</Frequency><Timestamp dt:dt=""r8"">1898126476</Timestamp><Current dt:dt=""r8"">0</Current><DateUtc dt:dt=""string"">2023-02-10T10:39:28Z</DateUtc></FrequencyChange></FrequencyChanges></Clock>\n",Wisconsin-1163-4,60.012,1.0.0.260,1,1900782088,3.0.3.80,3.0.3.80,02-10-2023,,18:39:29,3.0.3.82,2,,,,,,,BlockProc2,List2,2,,,,,,,,,,,,,,,,,2.0,1.0,1.0,2.0,1.0,2.0,,,,ShapeProc2,List4,,,,,,,,,7.0,Button1.png,Button2.png,Button3.png,Button4.png,Bluecircle3.png,,,,,,,{button1},0.0,,,,,,,0.0,TrialProc,ShapeList2,,,,1.0,1.0,7.0,1.0,{button1},1.0,33.0,234015.0,0.0,{Button1},1277.0,Shape
Wisconsin,1163,4,"<?xml version=""1.0""?>\n<Clock xmlns:dt=""urn:schemas-microsoft-com:datatypes""><Description dt:dt=""string"">E-Prime Primary Realtime Clock</Description><StartTime><Timestamp dt:dt=""int"">0</Timestamp><DateUtc dt:dt=""string"">2023-02-10T10:39:28Z</DateUtc></StartTime><FrequencyChanges><FrequencyChange><Frequency dt:dt=""r8"">10000000</Frequency><Timestamp dt:dt=""r8"">1898126476</Timestamp><Current dt:dt=""r8"">0</Current><DateUtc dt:dt=""string"">2023-02-10T10:39:28Z</DateUtc></FrequencyChange></FrequencyChanges></Clock>\n",Wisconsin-1163-4,60.012,1.0.0.260,1,1900782088,3.0.3.80,3.0.3.80,02-10-2023,,18:39:29,3.0.3.82,2,,,,,,,BlockProc2,List2,2,,,,,,,,,,,,,,,,,2.0,1.0,1.0,2.0,1.0,2.0,,,,ShapeProc2,List4,,,,,,,,,8.0,Button1.png,Button2.png,Button3.png,Button4.png,Yellowstar2.png,,,,,,,{button4},0.0,,,,,,,0.0,TrialProc,ShapeList2,,,,9.0,1.0,8.0,1.0,{button4},9.0,33.0,237864.0,0.0,{Button4},1924.0,Shape
Wisconsin,1163,4,"<?xml version=""1.0""?>\n<Clock xmlns:dt=""urn:schemas-microsoft-com:datatypes""><Description dt:dt=""string"">E-Prime Primary Realtime Clock</Description><StartTime><Timestamp dt:dt=""int"">0</Timestamp><DateUtc dt:dt=""string"">2023-02-10T10:39:28Z</DateUtc></StartTime><FrequencyChanges><FrequencyChange><Frequency dt:dt=""r8"">10000000</Frequency><Timestamp dt:dt=""r8"">1898126476</Timestamp><Current dt:dt=""r8"">0</Current><DateUtc dt:dt=""string"">2023-02-10T10:39:28Z</DateUtc></FrequencyChange></FrequencyChanges></Clock>\n",Wisconsin-1163-4,60.012,1.0.0.260,1,1900782088,3.0.3.80,3.0.3.80,02-10-2023,,18:39:29,3.0.3.82,2,,,,,,,BlockProc2,List2,2,,,,,,,,,,,,,,,,,2.0,1.0,1.0,2.0,1.0,2.0,,,,ShapeProc2,List4,,,,,,,,,9.0,Button1.png,Button2.png,Button3.png,Button4.png,redcircle1.png,,,,,,,{button1},0.0,,,,,,,0.0,TrialProc,ShapeList2,,,,4.0,1.0,9.0,1.0,{button1},9.0,33.0,242363.0,0.0,{Button1},2353.0,Shape
Wisconsin,1163,4,"<?xml version=""1.0""?>\n<Clock xmlns:dt=""urn:schemas-microsoft-com:datatypes""><Description dt:dt=""string"">E-Prime Primary Realtime Clock</Description><StartTime><Timestamp dt:dt=""int"">0</Timestamp><DateUtc dt:dt=""string"">2023-02-10T10:39:28Z</DateUtc></StartTime><FrequencyChanges><FrequencyChange><Frequency dt:dt=""r8"">10000000</Frequency><Timestamp dt:dt=""r8"">1898126476</Timestamp><Current dt:dt=""r8"">0</Current><DateUtc dt:dt=""string"">2023-02-10T10:39:28Z</DateUtc></FrequencyChange></FrequencyChanges></Clock>\n",Wisconsin-1163-4,60.012,1.0.0.260,1,1900782088,3.0.3.80,3.0.3.80,02-10-2023,,18:39:29,3.0.3.82,2,,,,,,,BlockProc2,List2,2,,,,,,,,,,,,,,,,,2.0,1.0,1.0,2.0,1.0,2.0,,,,ShapeProc2,List4,,,,,,,,,10.0,Button1.png,Button2.png,Button3.png,Button4.png,Yellowtriangle1.png,,,,,,,{button2},0.0,,,,,,,0.0,TrialProc,ShapeList2,,,,10.0,1.0,10.0,1.0,{button2},2.0,49.0,247311.0,0.0,{Button2},1197.0,Shape
Wisconsin,1163,4,"<?xml version=""1.0""?>\n<Clock xmlns:dt=""urn:schemas-microsoft-com:datatypes""><Description dt:dt=""string"">E-Prime Primary Realtime Clock</Description><StartTime><Timestamp dt:dt=""int"">0</Timestamp><DateUtc dt:dt=""string"">2023-02-10T10:39:28Z</DateUtc></StartTime><FrequencyChanges><FrequencyChange><Frequency dt:dt=""r8"">10000000</Frequency><Timestamp dt:dt=""r8"">1898126476</Timestamp><Current dt:dt=""r8"">0</Current><DateUtc dt:dt=""string"">2023-02-10T10:39:28Z</DateUtc></FrequencyChange></FrequencyChanges></Clock>\n",Wisconsin-1163-4,60.012,1.0.0.260,1,1900782088,3.0.3.80,3.0.3.80,02-10-2023,,18:39:29,3.0.3.82,2,,,,,,,BlockProc2,List2,3,,,,,,,,,,,,,,,,,2.0,1.0,1.0,3.0,1.0,3.0,,,,NumberProc2,List4,,,,,,,,,1.0,Button1.png,Button2.png,Button3.png,Button4.png,Bluecross3.png,,,,,,,{button3},0.0,,,,1.0,1.0,1.0,0.0,TrialProc,NumberList2,,,,,,,1.0,{button3},2.0,49.0,251110.0,0.0,{Button3},1414.0,number
Wisconsin,1163,4,"<?xml version=""1.0""?>\n<Clock xmlns:dt=""urn:schemas-microsoft-com:datatypes""><Description dt:dt=""string"">E-Prime Primary Realtime Clock</Description><StartTime><Timestamp dt:dt=""int"">0</Timestamp><DateUtc dt:dt=""string"">2023-02-10T10:39:28Z</DateUtc></StartTime><FrequencyChanges><FrequencyChange><Frequency dt:dt=""r8"">10000000</Frequency><Timestamp dt:dt=""r8"">1898126476</Timestamp><Current dt:dt=""r8"">0</Current><DateUtc dt:dt=""string"">2023-02-10T10:39:28Z</DateUtc></FrequencyChange></FrequencyChanges></Clock>\n",Wisconsin-1163-4,60.012,1.0.0.260,1,1900782088,3.0.3.80,3.0.3.80,02-10-2023,,18:39:29,3.0.3.82,2,,,,,,,BlockProc2,List2,3,,,,,,,,,,,,,,,,,2.0,1.0,1.0,3.0,1.0,3.0,,,,NumberProc2,List4,,,,,,,,,2.0,Button1.png,Button2.png,Button3.png,Button4.png,Bluestar4.png,,,,,,,{button2},0.0,,,,2.0,1.0,2.0,0.0,TrialProc,NumberList2,,,,,,,0.0,{button2},10.0,33.0,255109.0,0.0,{Button4},1943.0,number
Wisconsin,1163,4,"<?xml version=""1.0""?>\n<Clock xmlns:dt=""urn:schemas-microsoft-com:datatypes""><Description dt:dt=""string"">E-Prime Primary Realtime Clock</Description><StartTime><Timestamp dt:dt=""int"">0</Timestamp><DateUtc dt:dt=""string"">2023-02-10T10:39:28Z</DateUtc></StartTime><FrequencyChanges><FrequencyChange><Frequency dt:dt=""r8"">10000000</Frequency><Timestamp dt:dt=""r8"">1898126476</Timestamp><Current dt:dt=""r8"">0</Current><DateUtc dt:dt=""string"">2023-02-10T10:39:28Z</DateUtc></FrequencyChange></FrequencyChanges></Clock>\n",Wisconsin-1163-4,60.012,1.0.0.260,1,1900782088,3.0.3.80,3.0.3.80,02-10-2023,,18:39:29,3.0.3.82,2,,,,,,,BlockProc2,List2,3,,,,,,,,,,,,,,,,,2.0,1.0,1.0,3.0,1.0,3.0,,,,NumberProc2,List4,,,,,,,,,3.0,Button1.png,Button2.png,Button3.png,Button4.png,Bluetriangle4.png,,,,,,,{button2},0.0,,,,3.0,1.0,3.0,0.0,TrialProc,NumberList2,,,,,,,1.0,{button2},9.0,33.0,259625.0,0.0,{Button2},1835.0,number
Wisconsin,1163,4,"<?xml version=""1.0""?>\n<Clock xmlns:dt=""urn:schemas-microsoft-com:datatypes""><Description dt:dt=""string"">E-Prime Primary Realtime Clock</Description><StartTime><Timestamp dt:dt=""int"">0</Timestamp><DateUtc dt:dt=""string"">2023-02-10T10:39:28Z</DateUtc></StartTime><FrequencyChanges><FrequencyChange><Frequency dt:dt=""r8"">10000000</Frequency><Timestamp dt:dt=""r8"">1898126476</Timestamp><Current dt:dt=""r8"">0</Current><DateUtc dt:dt=""string"">2023-02-10T10:39:28Z</DateUtc></FrequencyChange></FrequencyChanges></Clock>\n",Wisconsin-1163-4,60.012,1.0.0.260,1,1900782088,3.0.3.80,3.0.3.80,02-10-2023,,18:39:29,3.0.3.82,2,,,,,,,BlockProc2,List2,3,,,,,,,,,,,,,,,,,2.0,1.0,1.0,3.0,1.0,3.0,,,,NumberProc2,List4,,,,,,,,,4.0,Button1.png,Button2.png,Button3.png,Button4.png,Greencross2.png,,,,,,,{button1},0.0,,,,4.0,1.0,4.0,0.0,TrialProc,NumberList2,,,,,,,0.0,{button1},10.0,33.0,264041.0,0.0,{Button3},3243.0,number
Wisconsin,1163,4,"<?xml version=""1.0""?>\n<Clock xmlns:dt=""urn:schemas-microsoft-com:datatypes""><Description dt:dt=""string"">E-Prime Primary Realtime Clock</Description><StartTime><Timestamp dt:dt=""int"">0</Timestamp><DateUtc dt:dt=""string"">2023-02-10T10:39:28Z</DateUtc></StartTime><FrequencyChanges><FrequencyChange><Frequency dt:dt=""r8"">10000000</Frequency><Timestamp dt:dt=""r8"">1898126476</Timestamp><Current dt:dt=""r8"">0</Current><DateUtc dt:dt=""string"">2023-02-10T10:39:28Z</DateUtc></FrequencyChange></FrequencyChanges></Clock>\n",Wisconsin-1163-4,60.012,1.0.0.260,1,1900782088,3.0.3.80,3.0.3.80,02-10-2023,,18:39:29,3.0.3.82,2,,,,,,,BlockProc2,List2,3,,,,,,,,,,,,,,,,,2.0,1.0,1.0,3.0,1.0,3.0,,,,NumberProc2,List4,,,,,,,,,5.0,Button1.png,Button2.png,Button3.png,Button4.png,Greenstar1.png,,,,,,,{button4},0.0,,,,5.0,1.0,5.0,0.0,TrialProc,NumberList2,,,,,,,1.0,{button4},9.0,50.0,269873.0,0.0,{Button4},2187.0,number
Wisconsin,1163,4,"<?xml version=""1.0""?>\n<Clock xmlns:dt=""urn:schemas-microsoft-com:datatypes""><Description dt:dt=""string"">E-Prime Primary Realtime Clock</Description><StartTime><Timestamp dt:dt=""int"">0</Timestamp><DateUtc dt:dt=""string"">2023-02-10T10:39:28Z</DateUtc></StartTime><FrequencyChanges><FrequencyChange><Frequency dt:dt=""r8"">10000000</Frequency><Timestamp dt:dt=""r8"">1898126476</Timestamp><Current dt:dt=""r8"">0</Current><DateUtc dt:dt=""string"">2023-02-10T10:39:28Z</DateUtc></FrequencyChange></FrequencyChanges></Clock>\n",Wisconsin-1163-4,60.012,1.0.0.260,1,1900782088,3.0.3.80,3.0.3.80,02-10-2023,,18:39:29,3.0.3.82,2,,,,,,,BlockProc2,List2,3,,,,,,,,,,,,,,,,,2.0,1.0,1.0,3.0,1.0,3.0,,,,NumberProc2,List4,,,,,,,,,6.0,Button1.png,Button2.png,Button3.png,Button4.png,Redstar1.png,,,,,,,{button4},0.0,,,,6.0,1.0,6.0,0.0,TrialProc,NumberList2,,,,,,,1.0,{button4},10.0,33.0,274638.0,0.0,{Button4},1342.0,number
Wisconsin,1163,4,"<?xml version=""1.0""?>\n<Clock xmlns:dt=""urn:schemas-microsoft-com:datatypes""><Description dt:dt=""string"">E-Prime Primary Realtime Clock</Description><StartTime><Timestamp dt:dt=""int"">0</Timestamp><DateUtc dt:dt=""string"">2023-02-10T10:39:28Z</DateUtc></StartTime><FrequencyChanges><FrequencyChange><Frequency dt:dt=""r8"">10000000</Frequency><Timestamp dt:dt=""r8"">1898126476</Timestamp><Current dt:dt=""r8"">0</Current><DateUtc dt:dt=""string"">2023-02-10T10:39:28Z</DateUtc></FrequencyChange></FrequencyChanges></Clock>\n",Wisconsin-1163-4,60.012,1.0.0.260,1,1900782088,3.0.3.80,3.0.3.80,02-10-2023,,18:39:29,3.0.3.82,2,,,,,,,BlockProc2,List2,3,,,,,,,,,,,,,,,,,2.0,1.0,1.0,3.0,1.0,3.0,,,,NumberProc2,List4,,,,,,,,,7.0,Button1.png,Button2.png,Button3.png,Button4.png,Redtriangle2.png,,,,,,,{button1},0.0,,,,7.0,1.0,7.0,0.0,TrialProc,NumberList2,,,,,,,0.0,{button1},10.0,33.0,278554.0,0.0,{Button2},4186.0,number
Wisconsin,1163,4,"<?xml version=""1.0""?>\n<Clock xmlns:dt=""urn:schemas-microsoft-com:datatypes""><Description dt:dt=""string"">E-Prime Primary Realtime Clock</Description><StartTime><Timestamp dt:dt=""int"">0</Timestamp><DateUtc dt:dt=""string"">2023-02-10T10:39:28Z</DateUtc></StartTime><FrequencyChanges><FrequencyChange><Frequency dt:dt=""r8"">10000000</Frequency><Timestamp dt:dt=""r8"">1898126476</Timestamp><Current dt:dt=""r8"">0</Current><DateUtc dt:dt=""string"">2023-02-10T10:39:28Z</DateUtc></FrequencyChange></FrequencyChanges></Clock>\n",Wisconsin-1163-4,60.012,1.0.0.260,1,1900782088,3.0.3.80,3.0.3.80,02-10-2023,,18:39:29,3.0.3.82,2,,,,,,,BlockProc2,List2,3,,,,,,,,,,,,,,,,,2.0,1.0,1.0,3.0,1.0,3.0,,,,NumberProc2,List4,,,,,,,,,8.0,Button1.png,Button2.png,Button3.png,Button4.png,yellowcircle4.png,,,,,,,{button2},0.0,,,,8.0,1.0,8.0,0.0,TrialProc,NumberList2,,,,,,,1.0,{button2},10.0,49.0,285335.0,0.0,{Button2},2013.0,number
Wisconsin,1163,4,"<?xml version=""1.0""?>\n<Clock xmlns:dt=""urn:schemas-microsoft-com:datatypes""><Description dt:dt=""string"">E-Prime Primary Realtime Clock</Description><StartTime><Timestamp dt:dt=""int"">0</Timestamp><DateUtc dt:dt=""string"">2023-02-10T10:39:28Z</DateUtc></StartTime><FrequencyChanges><FrequencyChange><Frequency dt:dt=""r8"">10000000</Frequency><Timestamp dt:dt=""r8"">1898126476</Timestamp><Current dt:dt=""r8"">0</Current><DateUtc dt:dt=""string"">2023-02-10T10:39:28Z</DateUtc></FrequencyChange></FrequencyChanges></Clock>\n",Wisconsin-1163-4,60.012,1.0.0.260,1,1900782088,3.0.3.80,3.0.3.80,02-10-2023,,18:39:29,3.0.3.82,2,,,,,,,BlockProc2,List2,3,,,,,,,,,,,,,,,,,2.0,1.0,1.0,3.0,1.0,3.0,,,,NumberProc2,List4,,,,,,,,,9.0,Button1.png,Button2.png,Button3.png,Button4.png,Yellowcross2.png,,,,,,,{button1},0.0,,,,9.0,1.0,9.0,0.0,TrialProc,NumberList2,,,,,,,1.0,{button1},10.0,33.0,289934.0,0.0,{Button1},4662.0,number
Wisconsin,1163,4,"<?xml version=""1.0""?>\n<Clock xmlns:dt=""urn:schemas-microsoft-com:datatypes""><Description dt:dt=""string"">E-Prime Primary Realtime Clock</Description><StartTime><Timestamp dt:dt=""int"">0</Timestamp><DateUtc dt:dt=""string"">2023-02-10T10:39:28Z</DateUtc></StartTime><FrequencyChanges><FrequencyChange><Frequency dt:dt=""r8"">10000000</Frequency><Timestamp dt:dt=""r8"">1898126476</Timestamp><Current dt:dt=""r8"">0</Current><DateUtc dt:dt=""string"">2023-02-10T10:39:28Z</DateUtc></FrequencyChange></FrequencyChanges></Clock>\n",Wisconsin-1163-4,60.012,1.0.0.260,1,1900782088,3.0.3.80,3.0.3.80,02-10-2023,,18:39:29,3.0.3.82,2,,,,,,,BlockProc2,List2,3,,,,,,,,,,,,,,,,,2.0,1.0,1.0,3.0,1.0,3.0,,,,NumberProc2,List4,,,,,,,,,10.0,Button1.png,Button2.png,Button3.png,Button4.png,Yellowtriangle2.png,,,,,,,{button3},0.0,,,,10.0,1.0,10.0,0.0,TrialProc,NumberList2,,,,,,,0.0,{button3},2.0,50.0,297199.0,0.0,{Button2},2629.0,number
Wisconsin,1163,4,"<?xml version=""1.0""?>\n<Clock xmlns:dt=""urn:schemas-microsoft-com:datatypes""><Description dt:dt=""string"">E-Prime Primary Realtime Clock</Description><StartTime><Timestamp dt:dt=""int"">0</Timestamp><DateUtc dt:dt=""string"">2023-02-10T10:39:28Z</DateUtc></StartTime><FrequencyChanges><FrequencyChange><Frequency dt:dt=""r8"">10000000</Frequency><Timestamp dt:dt=""r8"">1898126476</Timestamp><Current dt:dt=""r8"">0</Current><DateUtc dt:dt=""string"">2023-02-10T10:39:28Z</DateUtc></FrequencyChange></FrequencyChanges></Clock>\n",Wisconsin-1163-4,60.012,1.0.0.260,1,1900782088,3.0.3.80,3.0.3.80,02-10-2023,,18:39:29,3.0.3.82,3,,,,1.0,1.0,1.0,BlockProc,List2,1,,,,,,,,,,,,,,,,,1.0,1.0,2.0,,,,,,,ColorProc,List3,,,,,,,,,1.0,BUTTON1.png,BUTTON2.PNG,BUTTON3.png,BUTTON4.png,yellowstar3.png,10.0,1.0,1.0,,,,{button2},0.0,,,,,,,0.0,TrialProc,ColorList,,,,,,,0.0,{button2},1.0,34.0,302415.0,0.0,{Button3},2341.0,Color
Wisconsin,1163,4,"<?xml version=""1.0""?>\n<Clock xmlns:dt=""urn:schemas-microsoft-com:datatypes""><Description dt:dt=""string"">E-Prime Primary Realtime Clock</Description><StartTime><Timestamp dt:dt=""int"">0</Timestamp><DateUtc dt:dt=""string"">2023-02-10T10:39:28Z</DateUtc></StartTime><FrequencyChanges><FrequencyChange><Frequency dt:dt=""r8"">10000000</Frequency><Timestamp dt:dt=""r8"">1898126476</Timestamp><Current dt:dt=""r8"">0</Current><DateUtc dt:dt=""string"">2023-02-10T10:39:28Z</DateUtc></FrequencyChange></FrequencyChanges></Clock>\n",Wisconsin-1163-4,60.012,1.0.0.260,1,1900782088,3.0.3.80,3.0.3.80,02-10-2023,,18:39:29,3.0.3.82,3,,,,1.0,1.0,1.0,BlockProc,List2,1,,,,,,,,,,,,,,,,,1.0,1.0,2.0,,,,,,,ColorProc,List3,,,,,,,,,2.0,BUTTON1.png,BUTTON2.PNG,BUTTON3.png,BUTTON4.png,greencircle3.png,4.0,1.0,2.0,,,,{button1},0.0,,,,,,,0.0,TrialProc,ColorList,,,,,,,0.0,{button1},1.0,50.0,307347.0,0.0,{Button3},4097.0,Color
Wisconsin,1163,4,"<?xml version=""1.0""?>\n<Clock xmlns:dt=""urn:schemas-microsoft-com:datatypes""><Description dt:dt=""string"">E-Prime Primary Realtime Clock</Description><StartTime><Timestamp dt:dt=""int"">0</Timestamp><DateUtc dt:dt=""string"">2023-02-10T10:39:28Z</DateUtc></StartTime><FrequencyChanges><FrequencyChange><Frequency dt:dt=""r8"">10000000</Frequency><Timestamp dt:dt=""r8"">1898126476</Timestamp><Current dt:dt=""r8"">0</Current><DateUtc dt:dt=""string"">2023-02-10T10:39:28Z</DateUtc></FrequencyChange></FrequencyChanges></Clock>\n",Wisconsin-1163-4,60.012,1.0.0.260,1,1900782088,3.0.3.80,3.0.3.80,02-10-2023,,18:39:29,3.0.3.82,3,,,,1.0,1.0,1.0,BlockProc,List2,1,,,,,,,,,,,,,,,,,1.0,1.0,2.0,,,,,,,ColorProc,List3,,,,,,,,,3.0,BUTTON1.png,BUTTON2.PNG,BUTTON3.png,BUTTON4.png,bluecross2.png,2.0,1.0,3.0,,,,{button4},0.0,,,,,,,0.0,TrialProc,ColorList,,,,,,,0.0,{button4},10.0,33.0,314028.0,0.0,{Button1},2536.0,Color
Wisconsin,1163,4,"<?xml version=""1.0""?>\n<Clock xmlns:dt=""urn:schemas-microsoft-com:datatypes""><Description dt:dt=""string"">E-Prime Primary Realtime Clock</Description><StartTime><Timestamp dt:dt=""int"">0</Timestamp><DateUtc dt:dt=""string"">2023-02-10T10:39:28Z</DateUtc></StartTime><FrequencyChanges><FrequencyChange><Frequency dt:dt=""r8"">10000000</Frequency><Timestamp dt:dt=""r8"">1898126476</Timestamp><Current dt:dt=""r8"">0</Current><DateUtc dt:dt=""string"">2023-02-10T10:39:28Z</DateUtc></FrequencyChange></FrequencyChanges></Clock>\n",Wisconsin-1163-4,60.012,1.0.0.260,1,1900782088,3.0.3.80,3.0.3.80,02-10-2023,,18:39:29,3.0.3.82,3,,,,1.0,1.0,1.0,BlockProc,List2,1,,,,,,,,,,,,,,,,,1.0,1.0,2.0,,,,,,,ColorProc,List3,,,,,,,,,4.0,BUTTON1.png,BUTTON2.PNG,BUTTON3.png,BUTTON4.png,bluecircle1.png,1.0,1.0,4.0,,,,{button4},0.0,,,,,,,0.0,TrialProc,ColorList,,,,,,,1.0,{button4},9.0,33.0,319144.0,0.0,{Button4},4132.0,Color
Wisconsin,1163,4,"<?xml version=""1.0""?>\n<Clock xmlns:dt=""urn:schemas-microsoft-com:datatypes""><Description dt:dt=""string"">E-Prime Primary Realtime Clock</Description><StartTime><Timestamp dt:dt=""int"">0</Timestamp><DateUtc dt:dt=""string"">2023-02-10T10:39:28Z</DateUtc></StartTime><FrequencyChanges><FrequencyChange><Frequency dt:dt=""r8"">10000000</Frequency><Timestamp dt:dt=""r8"">1898126476</Timestamp><Current dt:dt=""r8"">0</Current><DateUtc dt:dt=""string"">2023-02-10T10:39:28Z</DateUtc></FrequencyChange></FrequencyChanges></Clock>\n",Wisconsin-1163-4,60.012,1.0.0.260,1,1900782088,3.0.3.80,3.0.3.80,02-10-2023,,18:39:29,3.0.3.82,3,,,,1.0,1.0,1.0,BlockProc,List2,1,,,,,,,,,,,,,,,,,1.0,1.0,2.0,,,,,,,ColorProc,List3,,,,,,,,,5.0,BUTTON1.png,BUTTON2.PNG,BUTTON3.png,BUTTON4.png,yellowcircle1.png,9.0,1.0,5.0,,,,{button2},0.0,,,,,,,0.0,TrialProc,ColorList,,,,,,,0.0,{button2},10.0,50.0,325859.0,5015.0,,0.0,Color
Wisconsin,1163,4,"<?xml version=""1.0""?>\n<Clock xmlns:dt=""urn:schemas-microsoft-com:datatypes""><Description dt:dt=""string"">E-Prime Primary Realtime Clock</Description><StartTime><Timestamp dt:dt=""int"">0</Timestamp><DateUtc dt:dt=""string"">2023-02-10T10:39:28Z</DateUtc></StartTime><FrequencyChanges><FrequencyChange><Frequency dt:dt=""r8"">10000000</Frequency><Timestamp dt:dt=""r8"">1898126476</Timestamp><Current dt:dt=""r8"">0</Current><DateUtc dt:dt=""string"">2023-02-10T10:39:28Z</DateUtc></FrequencyChange></FrequencyChanges></Clock>\n",Wisconsin-1163-4,60.012,1.0.0.260,1,1900782088,3.0.3.80,3.0.3.80,02-10-2023,,18:39:29,3.0.3.82,3,,,,1.0,1.0,1.0,BlockProc,List2,1,,,,,,,,,,,,,,,,,1.0,1.0,2.0,,,,,,,ColorProc,List3,,,,,,,,,6.0,BUTTON1.png,BUTTON2.PNG,BUTTON3.png,BUTTON4.png,greentriangle3.png,7.0,1.0,6.0,,,,{button1},0.0,,,,,,,0.0,TrialProc,ColorList,,,,,,,0.0,{button1},2.0,49.0,333440.0,0.0,{Button3},2292.0,Color
Wisconsin,1163,4,"<?xml version=""1.0""?>\n<Clock xmlns:dt=""urn:schemas-microsoft-com:datatypes""><Description dt:dt=""string"">E-Prime Primary Realtime Clock</Description><StartTime><Timestamp dt:dt=""int"">0</Timestamp><DateUtc dt:dt=""string"">2023-02-10T10:39:28Z</DateUtc></StartTime><FrequencyChanges><FrequencyChange><Frequency dt:dt=""r8"">10000000</Frequency><Timestamp dt:dt=""r8"">1898126476</Timestamp><Current dt:dt=""r8"">0</Current><DateUtc dt:dt=""string"">2023-02-10T10:39:28Z</DateUtc></FrequencyChange></FrequencyChanges></Clock>\n",Wisconsin-1163-4,60.012,1.0.0.260,1,1900782088,3.0.3.80,3.0.3.80,02-10-2023,,18:39:29,3.0.3.82,3,,,,1.0,1.0,1.0,BlockProc,List2,1,,,,,,,,,,,,,,,,,1.0,1.0,2.0,,,,,,,ColorProc,List3,,,,,,,,,7.0,BUTTON1.png,BUTTON2.PNG,BUTTON3.png,BUTTON4.png,greenstar2.png,5.0,1.0,7.0,,,,{button1},0.0,,,,,,,0.0,TrialProc,ColorList,,,,,,,0.0,{button1},2.0,49.0,338322.0,0.0,{Button4},1538.0,Color
Wisconsin,1163,4,"<?xml version=""1.0""?>\n<Clock xmlns:dt=""urn:schemas-microsoft-com:datatypes""><Description dt:dt=""string"">E-Prime Primary Realtime Clock</Description><StartTime><Timestamp dt:dt=""int"">0</Timestamp><DateUtc dt:dt=""string"">2023-02-10T10:39:28Z</DateUtc></StartTime><FrequencyChanges><FrequencyChange><Frequency dt:dt=""r8"">10000000</Frequency><Timestamp dt:dt=""r8"">1898126476</Timestamp><Current dt:dt=""r8"">0</Current><DateUtc dt:dt=""string"">2023-02-10T10:39:28Z</DateUtc></FrequencyChange></FrequencyChanges></Clock>\n",Wisconsin-1163-4,60.012,1.0.0.260,1,1900782088,3.0.3.80,3.0.3.80,02-10-2023,,18:39:29,3.0.3.82,3,,,,1.0,1.0,1.0,BlockProc,List2,1,,,,,,,,,,,,,,,,,1.0,1.0,2.0,,,,,,,ColorProc,List3,,,,,,,,,8.0,BUTTON1.png,BUTTON2.PNG,BUTTON3.png,BUTTON4.png,bluetriangle3.png,3.0,1.0,8.0,,,,{button4},0.0,,,,,,,0.0,TrialProc,ColorList,,,,,,,0.0,{button4},10.0,33.0,342438.0,0.0,{Button2},1598.0,Color
Wisconsin,1163,4,"<?xml version=""1.0""?>\n<Clock xmlns:dt=""urn:schemas-microsoft-com:datatypes""><Description dt:dt=""string"">E-Prime Primary Realtime Clock</Description><StartTime><Timestamp dt:dt=""int"">0</Timestamp><DateUtc dt:dt=""string"">2023-02-10T10:39:28Z</DateUtc></StartTime><FrequencyChanges><FrequencyChange><Frequency dt:dt=""r8"">10000000</Frequency><Timestamp dt:dt=""r8"">1898126476</Timestamp><Current dt:dt=""r8"">0</Current><DateUtc dt:dt=""string"">2023-02-10T10:39:28Z</DateUtc></FrequencyChange></FrequencyChanges></Clock>\n",Wisconsin-1163-4,60.012,1.0.0.260,1,1900782088,3.0.3.80,3.0.3.80,02-10-2023,,18:39:29,3.0.3.82,3,,,,1.0,1.0,1.0,BlockProc,List2,1,,,,,,,,,,,,,,,,,1.0,1.0,2.0,,,,,,,ColorProc,List3,,,,,,,,,9.0,BUTTON1.png,BUTTON2.PNG,BUTTON3.png,BUTTON4.png,redcircle3.png,8.0,1.0,9.0,,,,{button3},0.0,,,,,,,0.0,TrialProc,ColorList,,,,,,,1.0,{button3},10.0,33.0,346620.0,0.0,{Button3},2032.0,Color
Wisconsin,1163,4,"<?xml version=""1.0""?>\n<Clock xmlns:dt=""urn:schemas-microsoft-com:datatypes""><Description dt:dt=""string"">E-Prime Primary Realtime Clock</Description><StartTime><Timestamp dt:dt=""int"">0</Timestamp><DateUtc dt:dt=""string"">2023-02-10T10:39:28Z</DateUtc></StartTime><FrequencyChanges><FrequencyChange><Frequency dt:dt=""r8"">10000000</Frequency><Timestamp dt:dt=""r8"">1898126476</Timestamp><Current dt:dt=""r8"">0</Current><DateUtc dt:dt=""string"">2023-02-10T10:39:28Z</DateUtc></FrequencyChange></FrequencyChanges></Clock>\n",Wisconsin-1163-4,60.012,1.0.0.260,1,1900782088,3.0.3.80,3.0.3.80,02-10-2023,,18:39:29,3.0.3.82,3,,,,1.0,1.0,1.0,BlockProc,List2,1,,,,,,,,,,,,,,,,,1.0,1.0,2.0,,,,,,,ColorProc,List3,,,,,,,,,10.0,BUTTON1.png,BUTTON2.PNG,BUTTON3.png,BUTTON4.png,greentriangle1.png,6.0,1.0,10.0,,,,{button1},0.0,,,,,,,0.0,TrialProc,ColorList,,,,,,,0.0,{button1},10.0,50.0,351253.0,0.0,{Button2},1567.0,Color
Wisconsin,1163,4,"<?xml version=""1.0""?>\n<Clock xmlns:dt=""urn:schemas-microsoft-com:datatypes""><Description dt:dt=""string"">E-Prime Primary Realtime Clock</Description><StartTime><Timestamp dt:dt=""int"">0</Timestamp><DateUtc dt:dt=""string"">2023-02-10T10:39:28Z</DateUtc></StartTime><FrequencyChanges><FrequencyChange><Frequency dt:dt=""r8"">10000000</Frequency><Timestamp dt:dt=""r8"">1898126476</Timestamp><Current dt:dt=""r8"">0</Current><DateUtc dt:dt=""string"">2023-02-10T10:39:28Z</DateUtc></FrequencyChange></FrequencyChanges></Clock>\n",Wisconsin-1163-4,60.012,1.0.0.260,1,1900782088,3.0.3.80,3.0.3.80,02-10-2023,,18:39:29,3.0.3.82,3,,,,2.0,1.0,2.0,BlockProc,List2,2,,,,,,,,,,,,,,,,,1.0,1.0,2.0,,,,,,,ShapeProc,List3,,,,,,,,,1.0,Button1.png,Button2.png,Button3.png,Button4.png,Greencross1.png,,,,,,,{Button3},0.0,,,,,,,0.0,TrialProc,ShapeList,3.0,1.0,1.0,,,,0.0,{Button3},9.0,33.0,355402.0,0.0,{Button4},2650.0,Shape
Wisconsin,1163,4,"<?xml version=""1.0""?>\n<Clock xmlns:dt=""urn:schemas-microsoft-com:datatypes""><Description dt:dt=""string"">E-Prime Primary Realtime Clock</Description><StartTime><Timestamp dt:dt=""int"">0</Timestamp><DateUtc dt:dt=""string"">2023-02-10T10:39:28Z</DateUtc></StartTime><FrequencyChanges><FrequencyChange><Frequency dt:dt=""r8"">10000000</Frequency><Timestamp dt:dt=""r8"">1898126476</Timestamp><Current dt:dt=""r8"">0</Current><DateUtc dt:dt=""string"">2023-02-10T10:39:28Z</DateUtc></FrequencyChange></FrequencyChanges></Clock>\n",Wisconsin-1163-4,60.012,1.0.0.260,1,1900782088,3.0.3.80,3.0.3.80,02-10-2023,,18:39:29,3.0.3.82,3,,,,2.0,1.0,2.0,BlockProc,List2,2,,,,,,,,,,,,,,,,,1.0,1.0,2.0,,,,,,,ShapeProc,List3,,,,,,,,,2.0,Button1.png,Button2.png,Button3.png,Button4.png,Bluecross4.png,,,,,,,{Button3},0.0,,,,,,,0.0,TrialProc,ShapeList,2.0,1.0,2.0,,,,1.0,{Button3},10.0,49.0,360650.0,0.0,{Button3},3034.0,Shape
Wisconsin,1163,4,"<?xml version=""1.0""?>\n<Clock xmlns:dt=""urn:schemas-microsoft-com:datatypes""><Description dt:dt=""string"">E-Prime Primary Realtime Clock</Description><StartTime><Timestamp dt:dt=""int"">0</Timestamp><DateUtc dt:dt=""string"">2023-02-10T10:39:28Z</DateUtc></StartTime><FrequencyChanges><FrequencyChange><Frequency dt:dt=""r8"">10000000</Frequency><Timestamp dt:dt=""r8"">1898126476</Timestamp><Current dt:dt=""r8"">0</Current><DateUtc dt:dt=""string"">2023-02-10T10:39:28Z</DateUtc></FrequencyChange></FrequencyChanges></Clock>\n",Wisconsin-1163-4,60.012,1.0.0.260,1,1900782088,3.0.3.80,3.0.3.80,02-10-2023,,18:39:29,3.0.3.82,3,,,,2.0,1.0,2.0,BlockProc,List2,2,,,,,,,,,,,,,,,,,1.0,1.0,2.0,,,,,,,ShapeProc,List3,,,,,,,,,3.0,Button1.png,Button2.png,Button3.png,Button4.png,Bluecircle2.png,,,,,,,{Button1},0.0,,,,,,,0.0,TrialProc,ShapeList,1.0,1.0,3.0,,,,1.0,{Button1},9.0,33.0,366249.0,0.0,{Button1},2907.0,Shape
Wisconsin,1163,4,"<?xml version=""1.0""?>\n<Clock xmlns:dt=""urn:schemas-microsoft-com:datatypes""><Description dt:dt=""string"">E-Prime Primary Realtime Clock</Description><StartTime><Timestamp dt:dt=""int"">0</Timestamp><DateUtc dt:dt=""string"">2023-02-10T10:39:28Z</DateUtc></StartTime><FrequencyChanges><FrequencyChange><Frequency dt:dt=""r8"">10000000</Frequency><Timestamp dt:dt=""r8"">1898126476</Timestamp><Current dt:dt=""r8"">0</Current><DateUtc dt:dt=""string"">2023-02-10T10:39:28Z</DateUtc></FrequencyChange></FrequencyChanges></Clock>\n",Wisconsin-1163-4,60.012,1.0.0.260,1,1900782088,3.0.3.80,3.0.3.80,02-10-2023,,18:39:29,3.0.3.82,3,,,,2.0,1.0,2.0,BlockProc,List2,2,,,,,,,,,,,,,,,,,1.0,1.0,2.0,,,,,,,ShapeProc,List3,,,,,,,,,4.0,Button1.png,Button2.png,Button3.png,Button4.png,Greentriangle4.png,,,,,,,{Button2},0.0,,,,,,,0.0,TrialProc,ShapeList,4.0,1.0,4.0,,,,1.0,{Button2},10.0,33.0,371731.0,0.0,{Button2},1097.0,Shape
Wisconsin,1163,4,"<?xml version=""1.0""?>\n<Clock xmlns:dt=""urn:schemas-microsoft-com:datatypes""><Description dt:dt=""string"">E-Prime Primary Realtime Clock</Description><StartTime><Timestamp dt:dt=""int"">0</Timestamp><DateUtc dt:dt=""string"">2023-02-10T10:39:28Z</DateUtc></StartTime><FrequencyChanges><FrequencyChange><Frequency dt:dt=""r8"">10000000</Frequency><Timestamp dt:dt=""r8"">1898126476</Timestamp><Current dt:dt=""r8"">0</Current><DateUtc dt:dt=""string"">2023-02-10T10:39:28Z</DateUtc></FrequencyChange></FrequencyChanges></Clock>\n",Wisconsin-1163-4,60.012,1.0.0.260,1,1900782088,3.0.3.80,3.0.3.80,02-10-2023,,18:39:29,3.0.3.82,3,,,,2.0,1.0,2.0,BlockProc,List2,2,,,,,,,,,,,,,,,,,1.0,1.0,2.0,,,,,,,ShapeProc,List3,,,,,,,,,5.0,Button1.png,Button2.png,Button3.png,Button4.png,Yellowstar4.png,,,,,,,{Button4},0.0,,,,,,,0.0,TrialProc,ShapeList,10.0,1.0,5.0,,,,0.0,{Button4},2.0,33.0,375413.0,0.0,{Button2},1847.0,Shape
Wisconsin,1163,4,"<?xml version=""1.0""?>\n<Clock xmlns:dt=""urn:schemas-microsoft-com:datatypes""><Description dt:dt=""string"">E-Prime Primary Realtime Clock</Description><StartTime><Timestamp dt:dt=""int"">0</Timestamp><DateUtc dt:dt=""string"">2023-02-10T10:39:28Z</DateUtc></StartTime><FrequencyChanges><FrequencyChange><Frequency dt:dt=""r8"">10000000</Frequency><Timestamp dt:dt=""r8"">1898126476</Timestamp><Current dt:dt=""r8"">0</Current><DateUtc dt:dt=""string"">2023-02-10T10:39:28Z</DateUtc></FrequencyChange></FrequencyChanges></Clock>\n",Wisconsin-1163-4,60.012,1.0.0.260,1,1900782088,3.0.3.80,3.0.3.80,02-10-2023,,18:39:29,3.0.3.82,3,,,,2.0,1.0,2.0,BlockProc,List2,2,,,,,,,,,,,,,,,,,1.0,1.0,2.0,,,,,,,ShapeProc,List3,,,,,,,,,6.0,Button1.png,Button2.png,Button3.png,Button4.png,Yellowstar1.png,,,,,,,{Button4},0.0,,,,,,,0.0,TrialProc,ShapeList,9.0,1.0,6.0,,,,1.0,{Button4},10.0,49.0,379862.0,0.0,{Button4},2070.0,Shape
Wisconsin,1163,4,"<?xml version=""1.0""?>\n<Clock xmlns:dt=""urn:schemas-microsoft-com:datatypes""><Description dt:dt=""string"">E-Prime Primary Realtime Clock</Description><StartTime><Timestamp dt:dt=""int"">0</Timestamp><DateUtc dt:dt=""string"">2023-02-10T10:39:28Z</DateUtc></StartTime><FrequencyChanges><FrequencyChange><Frequency dt:dt=""r8"">10000000</Frequency><Timestamp dt:dt=""r8"">1898126476</Timestamp><Current dt:dt=""r8"">0</Current><DateUtc dt:dt=""string"">2023-02-10T10:39:28Z</DateUtc></FrequencyChange></FrequencyChanges></Clock>\n",Wisconsin-1163-4,60.012,1.0.0.260,1,1900782088,3.0.3.80,3.0.3.80,02-10-2023,,18:39:29,3.0.3.82,3,,,,2.0,1.0,2.0,BlockProc,List2,2,,,,,,,,,,,,,,,,,1.0,1.0,2.0,,,,,,,ShapeProc,List3,,,,,,,,,7.0,Button1.png,Button2.png,Button3.png,Button4.png,yellowcircle3.png,,,,,,,{Button1},0.0,,,,,,,0.0,TrialProc,ShapeList,8.0,1.0,7.0,,,,0.0,{Button1},10.0,50.0,384528.0,0.0,{Button3},1708.0,Shape
Wisconsin,1163,4,"<?xml version=""1.0""?>\n<Clock xmlns:dt=""urn:schemas-microsoft-com:datatypes""><Description dt:dt=""string"">E-Prime Primary Realtime Clock</Description><StartTime><Timestamp dt:dt=""int"">0</Timestamp><DateUtc dt:dt=""string"">2023-02-10T10:39:28Z</DateUtc></StartTime><FrequencyChanges><FrequencyChange><Frequency dt:dt=""r8"">10000000</Frequency><Timestamp dt:dt=""r8"">1898126476</Timestamp><Current dt:dt=""r8"">0</Current><DateUtc dt:dt=""string"">2023-02-10T10:39:28Z</DateUtc></FrequencyChange></FrequencyChanges></Clock>\n",Wisconsin-1163-4,60.012,1.0.0.260,1,1900782088,3.0.3.80,3.0.3.80,02-10-2023,,18:39:29,3.0.3.82,3,,,,2.0,1.0,2.0,BlockProc,List2,2,,,,,,,,,,,,,,,,,1.0,1.0,2.0,,,,,,,ShapeProc,List3,,,,,,,,,8.0,Button1.png,Button2.png,Button3.png,Button4.png,Redtriangle1.png,,,,,,,{Button2},0.0,,,,,,,0.0,TrialProc,ShapeList,7.0,1.0,8.0,,,,1.0,{Button2},10.0,50.0,388827.0,0.0,{Button2},1545.0,Shape
Wisconsin,1163,4,"<?xml version=""1.0""?>\n<Clock xmlns:dt=""urn:schemas-microsoft-com:datatypes""><Description dt:dt=""string"">E-Prime Primary Realtime Clock</Description><StartTime><Timestamp dt:dt=""int"">0</Timestamp><DateUtc dt:dt=""string"">2023-02-10T10:39:28Z</DateUtc></StartTime><FrequencyChanges><FrequencyChange><Frequency dt:dt=""r8"">10000000</Frequency><Timestamp dt:dt=""r8"">1898126476</Timestamp><Current dt:dt=""r8"">0</Current><DateUtc dt:dt=""string"">2023-02-10T10:39:28Z</DateUtc></FrequencyChange></FrequencyChanges></Clock>\n",Wisconsin-1163-4,60.012,1.0.0.260,1,1900782088,3.0.3.80,3.0.3.80,02-10-2023,,18:39:29,3.0.3.82,3,,,,2.0,1.0,2.0,BlockProc,List2,2,,,,,,,,,,,,,,,,,1.0,1.0,2.0,,,,,,,ShapeProc,List3,,,,,,,,,9.0,Button1.png,Button2.png,Button3.png,Button4.png,Redcross4.png,,,,,,,{Button3},0.0,,,,,,,0.0,TrialProc,ShapeList,6.0,1.0,9.0,,,,1.0,{Button3},2.0,50.0,392976.0,0.0,{Button3},1372.0,Shape
Wisconsin,1163,4,"<?xml version=""1.0""?>\n<Clock xmlns:dt=""urn:schemas-microsoft-com:datatypes""><Description dt:dt=""string"">E-Prime Primary Realtime Clock</Description><StartTime><Timestamp dt:dt=""int"">0</Timestamp><DateUtc dt:dt=""string"">2023-02-10T10:39:28Z</DateUtc></StartTime><FrequencyChanges><FrequencyChange><Frequency dt:dt=""r8"">10000000</Frequency><Timestamp dt:dt=""r8"">1898126476</Timestamp><Current dt:dt=""r8"">0</Current><DateUtc dt:dt=""string"">2023-02-10T10:39:28Z</DateUtc></FrequencyChange></FrequencyChanges></Clock>\n",Wisconsin-1163-4,60.012,1.0.0.260,1,1900782088,3.0.3.80,3.0.3.80,02-10-2023,,18:39:29,3.0.3.82,3,,,,2.0,1.0,2.0,BlockProc,List2,2,,,,,,,,,,,,,,,,,1.0,1.0,2.0,,,,,,,ShapeProc,List3,,,,,,,,,10.0,Button1.png,Button2.png,Button3.png,Button4.png,Redcross1.png,,,,,,,{Button3},0.0,,,,,,,0.0,TrialProc,ShapeList,5.0,1.0,10.0,,,,1.0,{Button3},10.0,33.0,396925.0,0.0,{Button3},1095.0,Shape
Wisconsin,1163,4,"<?xml version=""1.0""?>\n<Clock xmlns:dt=""urn:schemas-microsoft-com:datatypes""><Description dt:dt=""string"">E-Prime Primary Realtime Clock</Description><StartTime><Timestamp dt:dt=""int"">0</Timestamp><DateUtc dt:dt=""string"">2023-02-10T10:39:28Z</DateUtc></StartTime><FrequencyChanges><FrequencyChange><Frequency dt:dt=""r8"">10000000</Frequency><Timestamp dt:dt=""r8"">1898126476</Timestamp><Current dt:dt=""r8"">0</Current><DateUtc dt:dt=""string"">2023-02-10T10:39:28Z</DateUtc></FrequencyChange></FrequencyChanges></Clock>\n",Wisconsin-1163-4,60.012,1.0.0.260,1,1900782088,3.0.3.80,3.0.3.80,02-10-2023,,18:39:29,3.0.3.82,3,,,,3.0,1.0,3.0,BlockProc,List2,3,,,,,,,,,,,,,,,,,1.0,1.0,2.0,,,,,,,NumberProc,List3,,,,,,,,,1.0,Button1.png,Button2.png,Button3.png,Button4.png,Yellowcross3.png,,,,,,,{Button3},0.0,10.0,1.0,1.0,,,,0.0,TrialProc,NumberList,,,,,,,1.0,{Button3},11.0,50.0,400624.0,0.0,{Button3},1164.0,number
Wisconsin,1163,4,"<?xml version=""1.0""?>\n<Clock xmlns:dt=""urn:schemas-microsoft-com:datatypes""><Description dt:dt=""string"">E-Prime Primary Realtime Clock</Description><StartTime><Timestamp dt:dt=""int"">0</Timestamp><DateUtc dt:dt=""string"">2023-02-10T10:39:28Z</DateUtc></StartTime><FrequencyChanges><FrequencyChange><Frequency dt:dt=""r8"">10000000</Frequency><Timestamp dt:dt=""r8"">1898126476</Timestamp><Current dt:dt=""r8"">0</Current><DateUtc dt:dt=""string"">2023-02-10T10:39:28Z</DateUtc></FrequencyChange></FrequencyChanges></Clock>\n",Wisconsin-1163-4,60.012,1.0.0.260,1,1900782088,3.0.3.80,3.0.3.80,02-10-2023,,18:39:29,3.0.3.82,3,,,,3.0,1.0,3.0,BlockProc,List2,3,,,,,,,,,,,,,,,,,1.0,1.0,2.0,,,,,,,NumberProc,List3,,,,,,,,,2.0,Button1.png,Button2.png,Button3.png,Button4.png,Bluetriangle1.png,,,,,,,{Button4},0.0,3.0,1.0,2.0,,,,0.0,TrialProc,NumberList,,,,,,,1.0,{Button4},10.0,33.0,404373.0,0.0,{Button4},2383.0,number
Wisconsin,1163,4,"<?xml version=""1.0""?>\n<Clock xmlns:dt=""urn:schemas-microsoft-com:datatypes""><Description dt:dt=""string"">E-Prime Primary Realtime Clock</Description><StartTime><Timestamp dt:dt=""int"">0</Timestamp><DateUtc dt:dt=""string"">2023-02-10T10:39:28Z</DateUtc></StartTime><FrequencyChanges><FrequencyChange><Frequency dt:dt=""r8"">10000000</Frequency><Timestamp dt:dt=""r8"">1898126476</Timestamp><Current dt:dt=""r8"">0</Current><DateUtc dt:dt=""string"">2023-02-10T10:39:28Z</DateUtc></FrequencyChange></FrequencyChanges></Clock>\n",Wisconsin-1163-4,60.012,1.0.0.260,1,1900782088,3.0.3.80,3.0.3.80,02-10-2023,,18:39:29,3.0.3.82,3,,,,3.0,1.0,3.0,BlockProc,List2,3,,,,,,,,,,,,,,,,,1.0,1.0,2.0,,,,,,,NumberProc,List3,,,,,,,,,3.0,Button1.png,Button2.png,Button3.png,Button4.png,Greencircle4.png,,,,,,,{Button2},0.0,4.0,1.0,3.0,,,,0.0,TrialProc,NumberList,,,,,,,1.0,{Button2},11.0,50.0,409355.0,0.0,{Button2},2801.0,number
Wisconsin,1163,4,"<?xml version=""1.0""?>\n<Clock xmlns:dt=""urn:schemas-microsoft-com:datatypes""><Description dt:dt=""string"">E-Prime Primary Realtime Clock</Description><StartTime><Timestamp dt:dt=""int"">0</Timestamp><DateUtc dt:dt=""string"">2023-02-10T10:39:28Z</DateUtc></StartTime><FrequencyChanges><FrequencyChange><Frequency dt:dt=""r8"">10000000</Frequency><Timestamp dt:dt=""r8"">1898126476</Timestamp><Current dt:dt=""r8"">0</Current><DateUtc dt:dt=""string"">2023-02-10T10:39:28Z</DateUtc></FrequencyChange></FrequencyChanges></Clock>\n",Wisconsin-1163-4,60.012,1.0.0.260,1,1900782088,3.0.3.80,3.0.3.80,02-10-2023,,18:39:29,3.0.3.82,3,,,,3.0,1.0,3.0,BlockProc,List2,3,,,,,,,,,,,,,,,,,1.0,1.0,2.0,,,,,,,NumberProc,List3,,,,,,,,,4.0,Button1.png,Button2.png,Button3.png,Button4.png,Greencross3.png,,,,,,,{Button3},0.0,5.0,1.0,4.0,,,,0.0,TrialProc,NumberList,,,,,,,1.0,{Button3},2.0,33.0,414737.0,0.0,{Button3},1179.0,number
Wisconsin,1163,4,"<?xml version=""1.0""?>\n<Clock xmlns:dt=""urn:schemas-microsoft-com:datatypes""><Description dt:dt=""string"">E-Prime Primary Realtime Clock</Description><StartTime><Timestamp dt:dt=""int"">0</Timestamp><DateUtc dt:dt=""string"">2023-02-10T10:39:28Z</DateUtc></StartTime><FrequencyChanges><FrequencyChange><Frequency dt:dt=""r8"">10000000</Frequency><Timestamp dt:dt=""r8"">1898126476</Timestamp><Current dt:dt=""r8"">0</Current><DateUtc dt:dt=""string"">2023-02-10T10:39:28Z</DateUtc></FrequencyChange></FrequencyChanges></Clock>\n",Wisconsin-1163-4,60.012,1.0.0.260,1,1900782088,3.0.3.80,3.0.3.80,02-10-2023,,18:39:29,3.0.3.82,3,,,,3.0,1.0,3.0,BlockProc,List2,3,,,,,,,,,,,,,,,,,1.0,1.0,2.0,,,,,,,NumberProc,List3,,,,,,,,,5.0,Button1.png,Button2.png,Button3.png,Button4.png,Redstar2.png,,,,,,,{Button1},0.0,7.0,1.0,5.0,,,,0.0,TrialProc,NumberList,,,,,,,1.0,{Button1},1.0,50.0,418520.0,0.0,{Button1},2452.0,number
Wisconsin,1163,4,"<?xml version=""1.0""?>\n<Clock xmlns:dt=""urn:schemas-microsoft-com:datatypes""><Description dt:dt=""string"">E-Prime Primary Realtime Clock</Description><StartTime><Timestamp dt:dt=""int"">0</Timestamp><DateUtc dt:dt=""string"">2023-02-10T10:39:28Z</DateUtc></StartTime><FrequencyChanges><FrequencyChange><Frequency dt:dt=""r8"">10000000</Frequency><Timestamp dt:dt=""r8"">1898126476</Timestamp><Current dt:dt=""r8"">0</Current><DateUtc dt:dt=""string"">2023-02-10T10:39:28Z</DateUtc></FrequencyChange></FrequencyChanges></Clock>\n",Wisconsin-1163-4,60.012,1.0.0.260,1,1900782088,3.0.3.80,3.0.3.80,02-10-2023,,18:39:29,3.0.3.82,3,,,,3.0,1.0,3.0,BlockProc,List2,3,,,,,,,,,,,,,,,,,1.0,1.0,2.0,,,,,,,NumberProc,List3,,,,,,,,,6.0,Button1.png,Button2.png,Button3.png,Button4.png,Redtriangle4.png,,,,,,,{Button2},0.0,8.0,1.0,6.0,,,,0.0,TrialProc,NumberList,,,,,,,1.0,{Button2},10.0,33.0,423552.0,0.0,{Button2},1140.0,number
Wisconsin,1163,4,"<?xml version=""1.0""?>\n<Clock xmlns:dt=""urn:schemas-microsoft-com:datatypes""><Description dt:dt=""string"">E-Prime Primary Realtime Clock</Description><StartTime><Timestamp dt:dt=""int"">0</Timestamp><DateUtc dt:dt=""string"">2023-02-10T10:39:28Z</DateUtc></StartTime><FrequencyChanges><FrequencyChange><Frequency dt:dt=""r8"">10000000</Frequency><Timestamp dt:dt=""r8"">1898126476</Timestamp><Current dt:dt=""r8"">0</Current><DateUtc dt:dt=""string"">2023-02-10T10:39:28Z</DateUtc></FrequencyChange></FrequencyChanges></Clock>\n",Wisconsin-1163-4,60.012,1.0.0.260,1,1900782088,3.0.3.80,3.0.3.80,02-10-2023,,18:39:29,3.0.3.82,3,,,,3.0,1.0,3.0,BlockProc,List2,3,,,,,,,,,,,,,,,,,1.0,1.0,2.0,,,,,,,NumberProc,List3,,,,,,,,,7.0,Button1.png,Button2.png,Button3.png,Button4.png,Yellowcross1.png,,,,,,,{Button4},0.0,9.0,1.0,7.0,,,,0.0,TrialProc,NumberList,,,,,,,1.0,{Button4},2.0,50.0,427284.0,0.0,{Button4},2392.0,number
Wisconsin,1163,4,"<?xml version=""1.0""?>\n<Clock xmlns:dt=""urn:schemas-microsoft-com:datatypes""><Description dt:dt=""string"">E-Prime Primary Realtime Clock</Description><StartTime><Timestamp dt:dt=""int"">0</Timestamp><DateUtc dt:dt=""string"">2023-02-10T10:39:28Z</DateUtc></StartTime><FrequencyChanges><FrequencyChange><Frequency dt:dt=""r8"">10000000</Frequency><Timestamp dt:dt=""r8"">1898126476</Timestamp><Current dt:dt=""r8"">0</Current><DateUtc dt:dt=""string"">2023-02-10T10:39:28Z</DateUtc></FrequencyChange></FrequencyChanges></Clock>\n",Wisconsin-1163-4,60.012,1.0.0.260,1,1900782088,3.0.3.80,3.0.3.80,02-10-2023,,18:39:29,3.0.3.82,3,,,,3.0,1.0,3.0,BlockProc,List2,3,,,,,,,,,,,,,,,,,1.0,1.0,2.0,,,,,,,NumberProc,List3,,,,,,,,,8.0,Button1.png,Button2.png,Button3.png,Button4.png,Bluecircle4.png,,,,,,,{Button2},0.0,1.0,1.0,8.0,,,,0.0,TrialProc,NumberList,,,,,,,1.0,{Button2},12.0,33.0,432249.0,0.0,{Button2},2267.0,number
Wisconsin,1163,4,"<?xml version=""1.0""?>\n<Clock xmlns:dt=""urn:schemas-microsoft-com:datatypes""><Description dt:dt=""string"">E-Prime Primary Realtime Clock</Description><StartTime><Timestamp dt:dt=""int"">0</Timestamp><DateUtc dt:dt=""string"">2023-02-10T10:39:28Z</DateUtc></StartTime><FrequencyChanges><FrequencyChange><Frequency dt:dt=""r8"">10000000</Frequency><Timestamp dt:dt=""r8"">1898126476</Timestamp><Current dt:dt=""r8"">0</Current><DateUtc dt:dt=""string"">2023-02-10T10:39:28Z</DateUtc></FrequencyChange></FrequencyChanges></Clock>\n",Wisconsin-1163-4,60.012,1.0.0.260,1,1900782088,3.0.3.80,3.0.3.80,02-10-2023,,18:39:29,3.0.3.82,3,,,,3.0,1.0,3.0,BlockProc,List2,3,,,,,,,,,,,,,,,,,1.0,1.0,2.0,,,,,,,NumberProc,List3,,,,,,,,,9.0,Button1.png,Button2.png,Button3.png,Button4.png,Bluestar2.png,,,,,,,{Button1},0.0,2.0,1.0,9.0,,,,0.0,TrialProc,NumberList,,,,,,,0.0,{Button1},9.0,33.0,437082.0,0.0,{Button4},2026.0,number
Wisconsin,1163,4,"<?xml version=""1.0""?>\n<Clock xmlns:dt=""urn:schemas-microsoft-com:datatypes""><Description dt:dt=""string"">E-Prime Primary Realtime Clock</Description><StartTime><Timestamp dt:dt=""int"">0</Timestamp><DateUtc dt:dt=""string"">2023-02-10T10:39:28Z</DateUtc></StartTime><FrequencyChanges><FrequencyChange><Frequency dt:dt=""r8"">10000000</Frequency><Timestamp dt:dt=""r8"">1898126476</Timestamp><Current dt:dt=""r8"">0</Current><DateUtc dt:dt=""string"">2023-02-10T10:39:28Z</DateUtc></FrequencyChange></FrequencyChanges></Clock>\n",Wisconsin-1163-4,60.012,1.0.0.260,1,1900782088,3.0.3.80,3.0.3.80,02-10-2023,,18:39:29,3.0.3.82,3,,,,3.0,1.0,3.0,BlockProc,List2,3,,,,,,,,,,,,,,,,,1.0,1.0,2.0,,,,,,,NumberProc,List3,,,,,,,,,10.0,Button1.png,Button2.png,Button3.png,Button4.png,Redcircle4.png,,,,,,,{Button2},0.0,6.0,1.0,10.0,,,,0.0,TrialProc,NumberList,,,,,,,1.0,{Button2},1.0,34.0,441681.0,0.0,{Button2},2171.0,number
