ExperimentName,Subject,Session,Clock.Information,DataFile.Basename,Display.RefreshRate,ExperimentVersion,Group,RandomSeed,RuntimeVersion,RuntimeVersionExpected,SessionDate,SessionStartDateTimeUtc,SessionTime,StudioVersion,Block,List1,List1.Cycle,List1.Sample,List3,List3.Cycle,List3.Sample,Procedure[Block],Running[Block],Trial,CardIMG1[Trial],CardIMG2[Trial],CardIMG3[Trial],CardIMG4[Trial],CardStim[Trial],Category,CorrectAnswer[Trial],FeedbackDisplay2.ACC,FeedbackDisplay2.CRESP,FeedbackDisplay2.DurationError,FeedbackDisplay2.OnsetDelay,FeedbackDisplay2.OnsetTime,FeedbackDisplay2.OnsetToOnsetTime,FeedbackDisplay2.RESP,FeedbackDisplay2.RT,FeedbackDisplay2.RTTime,List2,List2.Cycle,List2.Sample,List4,List4.Cycle,List4.Sample,PracticeList,PracticeList.Cycle,PracticeList.Sample,Procedure[Trial],Running[Trial],Slide5.ACC,Slide5.CRESP,Slide5.DurationError,Slide5.OnsetDelay,Slide5.OnsetTime,Slide5.OnsetToOnsetTime,Slide5.RESP,Slide5.RT,SubTrial,CardIMG1[SubTrial],CardIMG2[SubTrial],CardIMG3[SubTrial],CardIMG4[SubTrial],CardStim[SubTrial],ColorList,ColorList.Cycle,ColorList.Sample,ColorList2,ColorList2.Cycle,ColorList2.Sample,CorrectAnswer[SubTrial],NonPerseverativeError,NumberList,NumberList.Cycle,NumberList.Sample,NumberList1,NumberList1.Cycle,NumberList1.Sample,PerseverativeError,Procedure[SubTrial],Running[SubTrial],ShapeList,ShapeList.Cycle,ShapeList.Sample,ShapeList1,ShapeList1.Cycle,ShapeList1.Sample,Stimulus.ACC,Stimulus.CRESP,Stimulus.DurationError,Stimulus.OnsetDelay,Stimulus.OnsetTime,Stimulus.OnsetToOnsetTime,Stimulus.RESP,Stimulus.RT,TrialType
Wisconsin,1175,3,"<?xml version=""1.0""?>\n<Clock xmlns:dt=""urn:schemas-microsoft-com:datatypes""><Description dt:dt=""string"">E-Prime Primary Realtime Clock</Description><StartTime><Timestamp dt:dt=""int"">0</Timestamp><DateUtc dt:dt=""string"">2023-01-14T09:58:57Z</DateUtc></StartTime><FrequencyChanges><FrequencyChange><Frequency dt:dt=""r8"">2929853</Frequency><Timestamp dt:dt=""r8"">46855815817</Timestamp><Current dt:dt=""r8"">0</Current><DateUtc dt:dt=""string"">2023-01-14T09:58:57Z</DateUtc></FrequencyChange></FrequencyChanges></Clock>\n",Wisconsin-1175-3,59.957,1.0.0.559,1,-388253323,2.0.10.356,2.0.10.356,01-14-2023,1/14/2023 9:58:57 AM,17:58:57,2.0.10.252,1,1.0,1.0,1.0,,,,Practicebloc,List1,1,Button1.png,Button2.png,Button3.png,Button4.png,Greencircle3.png,顏色,z,0.0,,0.0,29.0,105912.0,0.0,,0.0,0.0,,,,,,,1.0,1.0,1.0,PracticeTrialProc,PracticeList,0.0,z,0.0,1.0,102677.0,0.0,c,3205.0,,,,,,,,,,,,,,,,,,,,,,,,,,,,,,,,,,,,,,
Wisconsin,1175,3,"<?xml version=""1.0""?>\n<Clock xmlns:dt=""urn:schemas-microsoft-com:datatypes""><Description dt:dt=""string"">E-Prime Primary Realtime Clock</Description><StartTime><Timestamp dt:dt=""int"">0</Timestamp><DateUtc dt:dt=""string"">2023-01-14T09:58:57Z</DateUtc></StartTime><FrequencyChanges><FrequencyChange><Frequency dt:dt=""r8"">2929853</Frequency><Timestamp dt:dt=""r8"">46855815817</Timestamp><Current dt:dt=""r8"">0</Current><DateUtc dt:dt=""string"">2023-01-14T09:58:57Z</DateUtc></FrequencyChange></FrequencyChanges></Clock>\n",Wisconsin-1175-3,59.957,1.0.0.559,1,-388253323,2.0.10.356,2.0.10.356,01-14-2023,1/14/2023 9:58:57 AM,17:58:57,2.0.10.252,1,1.0,1.0,1.0,,,,Practicebloc,List1,2,Button1.png,Button2.png,Button3.png,Button4.png,Redstar2.png,顏色,c,0.0,,0.0,20.0,113484.0,0.0,,0.0,0.0,,,,,,,2.0,1.0,2.0,PracticeTrialProc,PracticeList,0.0,c,0.0,1.0,108464.0,5020.0,,0.0,,,,,,,,,,,,,,,,,,,,,,,,,,,,,,,,,,,,,,
Wisconsin,1175,3,"<?xml version=""1.0""?>\n<Clock xmlns:dt=""urn:schemas-microsoft-com:datatypes""><Description dt:dt=""string"">E-Prime Primary Realtime Clock</Description><StartTime><Timestamp dt:dt=""int"">0</Timestamp><DateUtc dt:dt=""string"">2023-01-14T09:58:57Z</DateUtc></StartTime><FrequencyChanges><FrequencyChange><Frequency dt:dt=""r8"">2929853</Frequency><Timestamp dt:dt=""r8"">46855815817</Timestamp><Current dt:dt=""r8"">0</Current><DateUtc dt:dt=""string"">2023-01-14T09:58:57Z</DateUtc></FrequencyChange></FrequencyChanges></Clock>\n",Wisconsin-1175-3,59.957,1.0.0.559,1,-388253323,2.0.10.356,2.0.10.356,01-14-2023,1/14/2023 9:58:57 AM,17:58:57,2.0.10.252,1,1.0,1.0,1.0,,,,Practicebloc,List1,3,Button1.png,Button2.png,Button3.png,Button4.png,Bluetriangle1.png,形狀,x,0.0,,0.0,13.0,118071.0,0.0,,0.0,0.0,,,,,,,3.0,1.0,3.0,PracticeTrialProc,PracticeList,0.0,x,0.0,0.0,116036.0,0.0,z,2021.0,,,,,,,,,,,,,,,,,,,,,,,,,,,,,,,,,,,,,,
Wisconsin,1175,3,"<?xml version=""1.0""?>\n<Clock xmlns:dt=""urn:schemas-microsoft-com:datatypes""><Description dt:dt=""string"">E-Prime Primary Realtime Clock</Description><StartTime><Timestamp dt:dt=""int"">0</Timestamp><DateUtc dt:dt=""string"">2023-01-14T09:58:57Z</DateUtc></StartTime><FrequencyChanges><FrequencyChange><Frequency dt:dt=""r8"">2929853</Frequency><Timestamp dt:dt=""r8"">46855815817</Timestamp><Current dt:dt=""r8"">0</Current><DateUtc dt:dt=""string"">2023-01-14T09:58:57Z</DateUtc></FrequencyChange></FrequencyChanges></Clock>\n",Wisconsin-1175-3,59.957,1.0.0.559,1,-388253323,2.0.10.356,2.0.10.356,01-14-2023,1/14/2023 9:58:57 AM,17:58:57,2.0.10.252,1,1.0,1.0,1.0,,,,Practicebloc,List1,4,Button1.png,Button2.png,Button3.png,Button4.png,greenstar2.png,形狀,v,0.0,,0.0,12.0,123158.0,0.0,,0.0,0.0,,,,,,,4.0,1.0,4.0,PracticeTrialProc,PracticeList,0.0,v,0.0,1.0,120623.0,0.0,x,2522.0,,,,,,,,,,,,,,,,,,,,,,,,,,,,,,,,,,,,,,
Wisconsin,1175,3,"<?xml version=""1.0""?>\n<Clock xmlns:dt=""urn:schemas-microsoft-com:datatypes""><Description dt:dt=""string"">E-Prime Primary Realtime Clock</Description><StartTime><Timestamp dt:dt=""int"">0</Timestamp><DateUtc dt:dt=""string"">2023-01-14T09:58:57Z</DateUtc></StartTime><FrequencyChanges><FrequencyChange><Frequency dt:dt=""r8"">2929853</Frequency><Timestamp dt:dt=""r8"">46855815817</Timestamp><Current dt:dt=""r8"">0</Current><DateUtc dt:dt=""string"">2023-01-14T09:58:57Z</DateUtc></FrequencyChange></FrequencyChanges></Clock>\n",Wisconsin-1175-3,59.957,1.0.0.559,1,-388253323,2.0.10.356,2.0.10.356,01-14-2023,1/14/2023 9:58:57 AM,17:58:57,2.0.10.252,1,1.0,1.0,1.0,,,,Practicebloc,List1,5,Button1.png,Button2.png,Button3.png,Button4.png,BlueCross4.png,數目,x,0.0,,0.0,12.0,127912.0,0.0,,0.0,0.0,,,,,,,5.0,1.0,5.0,PracticeTrialProc,PracticeList,0.0,x,0.0,1.0,125710.0,0.0,v,2187.0,,,,,,,,,,,,,,,,,,,,,,,,,,,,,,,,,,,,,,
Wisconsin,1175,3,"<?xml version=""1.0""?>\n<Clock xmlns:dt=""urn:schemas-microsoft-com:datatypes""><Description dt:dt=""string"">E-Prime Primary Realtime Clock</Description><StartTime><Timestamp dt:dt=""int"">0</Timestamp><DateUtc dt:dt=""string"">2023-01-14T09:58:57Z</DateUtc></StartTime><FrequencyChanges><FrequencyChange><Frequency dt:dt=""r8"">2929853</Frequency><Timestamp dt:dt=""r8"">46855815817</Timestamp><Current dt:dt=""r8"">0</Current><DateUtc dt:dt=""string"">2023-01-14T09:58:57Z</DateUtc></FrequencyChange></FrequencyChanges></Clock>\n",Wisconsin-1175-3,59.957,1.0.0.559,1,-388253323,2.0.10.356,2.0.10.356,01-14-2023,1/14/2023 9:58:57 AM,17:58:57,2.0.10.252,1,1.0,1.0,1.0,,,,Practicebloc,List1,6,Button1.png,Button2.png,Button3.png,Button4.png,yellowcircle2.png,數目,z,0.0,,0.0,18.0,132315.0,0.0,,0.0,0.0,,,,,,,6.0,1.0,6.0,PracticeTrialProc,PracticeList,0.0,z,1.0,0.0,130463.0,0.0,x,1834.0,,,,,,,,,,,,,,,,,,,,,,,,,,,,,,,,,,,,,,
Wisconsin,1175,3,"<?xml version=""1.0""?>\n<Clock xmlns:dt=""urn:schemas-microsoft-com:datatypes""><Description dt:dt=""string"">E-Prime Primary Realtime Clock</Description><StartTime><Timestamp dt:dt=""int"">0</Timestamp><DateUtc dt:dt=""string"">2023-01-14T09:58:57Z</DateUtc></StartTime><FrequencyChanges><FrequencyChange><Frequency dt:dt=""r8"">2929853</Frequency><Timestamp dt:dt=""r8"">46855815817</Timestamp><Current dt:dt=""r8"">0</Current><DateUtc dt:dt=""string"">2023-01-14T09:58:57Z</DateUtc></FrequencyChange></FrequencyChanges></Clock>\n",Wisconsin-1175-3,59.957,1.0.0.559,1,-388253323,2.0.10.356,2.0.10.356,01-14-2023,1/14/2023 9:58:57 AM,17:58:57,2.0.10.252,2,,,,2.0,1.0,1.0,BlockProc2,List3,1,,,,,,,,,,,,,,,,,,,,1.0,1.0,1.0,,,,ColorProc2,List4,,,,,,,,,1.0,BUTTON1.png,BUTTON2.PNG,BUTTON3.png,BUTTON4.png,greentriangle2.png,,,,6.0,1.0,1.0,z,1.0,,,,,,,0.0,TrialProc,ColorList2,,,,,,,0.0,z,0.0,1.0,145291.0,0.0,x,4173.0,color
Wisconsin,1175,3,"<?xml version=""1.0""?>\n<Clock xmlns:dt=""urn:schemas-microsoft-com:datatypes""><Description dt:dt=""string"">E-Prime Primary Realtime Clock</Description><StartTime><Timestamp dt:dt=""int"">0</Timestamp><DateUtc dt:dt=""string"">2023-01-14T09:58:57Z</DateUtc></StartTime><FrequencyChanges><FrequencyChange><Frequency dt:dt=""r8"">2929853</Frequency><Timestamp dt:dt=""r8"">46855815817</Timestamp><Current dt:dt=""r8"">0</Current><DateUtc dt:dt=""string"">2023-01-14T09:58:57Z</DateUtc></FrequencyChange></FrequencyChanges></Clock>\n",Wisconsin-1175-3,59.957,1.0.0.559,1,-388253323,2.0.10.356,2.0.10.356,01-14-2023,1/14/2023 9:58:57 AM,17:58:57,2.0.10.252,2,,,,2.0,1.0,1.0,BlockProc2,List3,1,,,,,,,,,,,,,,,,,,,,1.0,1.0,1.0,,,,ColorProc2,List4,,,,,,,,,2.0,BUTTON1.png,BUTTON2.PNG,BUTTON3.png,BUTTON4.png,greencross4.png,,,,4.0,1.0,2.0,z,1.0,,,,,,,0.0,TrialProc,ColorList2,,,,,,,0.0,z,1.0,0.0,152012.0,0.0,v,6427.0,color
Wisconsin,1175,3,"<?xml version=""1.0""?>\n<Clock xmlns:dt=""urn:schemas-microsoft-com:datatypes""><Description dt:dt=""string"">E-Prime Primary Realtime Clock</Description><StartTime><Timestamp dt:dt=""int"">0</Timestamp><DateUtc dt:dt=""string"">2023-01-14T09:58:57Z</DateUtc></StartTime><FrequencyChanges><FrequencyChange><Frequency dt:dt=""r8"">2929853</Frequency><Timestamp dt:dt=""r8"">46855815817</Timestamp><Current dt:dt=""r8"">0</Current><DateUtc dt:dt=""string"">2023-01-14T09:58:57Z</DateUtc></FrequencyChange></FrequencyChanges></Clock>\n",Wisconsin-1175-3,59.957,1.0.0.559,1,-388253323,2.0.10.356,2.0.10.356,01-14-2023,1/14/2023 9:58:57 AM,17:58:57,2.0.10.252,2,,,,2.0,1.0,1.0,BlockProc2,List3,1,,,,,,,,,,,,,,,,,,,,1.0,1.0,1.0,,,,ColorProc2,List4,,,,,,,,,3.0,BUTTON1.png,BUTTON2.PNG,BUTTON3.png,BUTTON4.png,redstar4.png,,,,8.0,1.0,3.0,c,1.0,,,,,,,0.0,TrialProc,ColorList2,,,,,,,0.0,c,0.0,1.0,160969.0,0.0,v,3342.0,color
Wisconsin,1175,3,"<?xml version=""1.0""?>\n<Clock xmlns:dt=""urn:schemas-microsoft-com:datatypes""><Description dt:dt=""string"">E-Prime Primary Realtime Clock</Description><StartTime><Timestamp dt:dt=""int"">0</Timestamp><DateUtc dt:dt=""string"">2023-01-14T09:58:57Z</DateUtc></StartTime><FrequencyChanges><FrequencyChange><Frequency dt:dt=""r8"">2929853</Frequency><Timestamp dt:dt=""r8"">46855815817</Timestamp><Current dt:dt=""r8"">0</Current><DateUtc dt:dt=""string"">2023-01-14T09:58:57Z</DateUtc></FrequencyChange></FrequencyChanges></Clock>\n",Wisconsin-1175-3,59.957,1.0.0.559,1,-388253323,2.0.10.356,2.0.10.356,01-14-2023,1/14/2023 9:58:57 AM,17:58:57,2.0.10.252,2,,,,2.0,1.0,1.0,BlockProc2,List3,1,,,,,,,,,,,,,,,,,,,,1.0,1.0,1.0,,,,ColorProc2,List4,,,,,,,,,4.0,BUTTON1.png,BUTTON2.PNG,BUTTON3.png,BUTTON4.png,bluestar3.png,,,,2.0,1.0,4.0,v,1.0,,,,,,,0.0,TrialProc,ColorList2,,,,,,,0.0,v,0.0,1.0,166857.0,0.0,c,2846.0,color
Wisconsin,1175,3,"<?xml version=""1.0""?>\n<Clock xmlns:dt=""urn:schemas-microsoft-com:datatypes""><Description dt:dt=""string"">E-Prime Primary Realtime Clock</Description><StartTime><Timestamp dt:dt=""int"">0</Timestamp><DateUtc dt:dt=""string"">2023-01-14T09:58:57Z</DateUtc></StartTime><FrequencyChanges><FrequencyChange><Frequency dt:dt=""r8"">2929853</Frequency><Timestamp dt:dt=""r8"">46855815817</Timestamp><Current dt:dt=""r8"">0</Current><DateUtc dt:dt=""string"">2023-01-14T09:58:57Z</DateUtc></FrequencyChange></FrequencyChanges></Clock>\n",Wisconsin-1175-3,59.957,1.0.0.559,1,-388253323,2.0.10.356,2.0.10.356,01-14-2023,1/14/2023 9:58:57 AM,17:58:57,2.0.10.252,2,,,,2.0,1.0,1.0,BlockProc2,List3,1,,,,,,,,,,,,,,,,,,,,1.0,1.0,1.0,,,,ColorProc2,List4,,,,,,,,,5.0,BUTTON1.png,BUTTON2.PNG,BUTTON3.png,BUTTON4.png,bluecross1.png,,,,1.0,1.0,5.0,v,1.0,,,,,,,0.0,TrialProc,ColorList2,,,,,,,0.0,v,0.0,1.0,172244.0,0.0,z,3218.0,color
Wisconsin,1175,3,"<?xml version=""1.0""?>\n<Clock xmlns:dt=""urn:schemas-microsoft-com:datatypes""><Description dt:dt=""string"">E-Prime Primary Realtime Clock</Description><StartTime><Timestamp dt:dt=""int"">0</Timestamp><DateUtc dt:dt=""string"">2023-01-14T09:58:57Z</DateUtc></StartTime><FrequencyChanges><FrequencyChange><Frequency dt:dt=""r8"">2929853</Frequency><Timestamp dt:dt=""r8"">46855815817</Timestamp><Current dt:dt=""r8"">0</Current><DateUtc dt:dt=""string"">2023-01-14T09:58:57Z</DateUtc></FrequencyChange></FrequencyChanges></Clock>\n",Wisconsin-1175-3,59.957,1.0.0.559,1,-388253323,2.0.10.356,2.0.10.356,01-14-2023,1/14/2023 9:58:57 AM,17:58:57,2.0.10.252,2,,,,2.0,1.0,1.0,BlockProc2,List3,1,,,,,,,,,,,,,,,,,,,,1.0,1.0,1.0,,,,ColorProc2,List4,,,,,,,,,6.0,BUTTON1.png,BUTTON2.PNG,BUTTON3.png,BUTTON4.png,yellowtriangle3.png,,,,10.0,1.0,6.0,x,1.0,,,,,,,0.0,TrialProc,ColorList2,,,,,,,0.0,x,0.0,1.0,177998.0,0.0,c,1800.0,color
Wisconsin,1175,3,"<?xml version=""1.0""?>\n<Clock xmlns:dt=""urn:schemas-microsoft-com:datatypes""><Description dt:dt=""string"">E-Prime Primary Realtime Clock</Description><StartTime><Timestamp dt:dt=""int"">0</Timestamp><DateUtc dt:dt=""string"">2023-01-14T09:58:57Z</DateUtc></StartTime><FrequencyChanges><FrequencyChange><Frequency dt:dt=""r8"">2929853</Frequency><Timestamp dt:dt=""r8"">46855815817</Timestamp><Current dt:dt=""r8"">0</Current><DateUtc dt:dt=""string"">2023-01-14T09:58:57Z</DateUtc></FrequencyChange></FrequencyChanges></Clock>\n",Wisconsin-1175-3,59.957,1.0.0.559,1,-388253323,2.0.10.356,2.0.10.356,01-14-2023,1/14/2023 9:58:57 AM,17:58:57,2.0.10.252,2,,,,2.0,1.0,1.0,BlockProc2,List3,1,,,,,,,,,,,,,,,,,,,,1.0,1.0,1.0,,,,ColorProc2,List4,,,,,,,,,7.0,BUTTON1.png,BUTTON2.PNG,BUTTON3.png,BUTTON4.png,Greencircle1.png,,,,3.0,1.0,7.0,z,0.0,,,,,,,0.0,TrialProc,ColorList2,,,,,,,1.0,z,1.0,0.0,182334.0,0.0,z,1576.0,color
Wisconsin,1175,3,"<?xml version=""1.0""?>\n<Clock xmlns:dt=""urn:schemas-microsoft-com:datatypes""><Description dt:dt=""string"">E-Prime Primary Realtime Clock</Description><StartTime><Timestamp dt:dt=""int"">0</Timestamp><DateUtc dt:dt=""string"">2023-01-14T09:58:57Z</DateUtc></StartTime><FrequencyChanges><FrequencyChange><Frequency dt:dt=""r8"">2929853</Frequency><Timestamp dt:dt=""r8"">46855815817</Timestamp><Current dt:dt=""r8"">0</Current><DateUtc dt:dt=""string"">2023-01-14T09:58:57Z</DateUtc></FrequencyChange></FrequencyChanges></Clock>\n",Wisconsin-1175-3,59.957,1.0.0.559,1,-388253323,2.0.10.356,2.0.10.356,01-14-2023,1/14/2023 9:58:57 AM,17:58:57,2.0.10.252,2,,,,2.0,1.0,1.0,BlockProc2,List3,1,,,,,,,,,,,,,,,,,,,,1.0,1.0,1.0,,,,ColorProc2,List4,,,,,,,,,8.0,BUTTON1.png,BUTTON2.PNG,BUTTON3.png,BUTTON4.png,Redcircle2.png,,,,7.0,1.0,8.0,c,1.0,,,,,,,0.0,TrialProc,ColorList2,,,,,,,0.0,c,0.0,1.0,186454.0,0.0,x,3167.0,color
Wisconsin,1175,3,"<?xml version=""1.0""?>\n<Clock xmlns:dt=""urn:schemas-microsoft-com:datatypes""><Description dt:dt=""string"">E-Prime Primary Realtime Clock</Description><StartTime><Timestamp dt:dt=""int"">0</Timestamp><DateUtc dt:dt=""string"">2023-01-14T09:58:57Z</DateUtc></StartTime><FrequencyChanges><FrequencyChange><Frequency dt:dt=""r8"">2929853</Frequency><Timestamp dt:dt=""r8"">46855815817</Timestamp><Current dt:dt=""r8"">0</Current><DateUtc dt:dt=""string"">2023-01-14T09:58:57Z</DateUtc></FrequencyChange></FrequencyChanges></Clock>\n",Wisconsin-1175-3,59.957,1.0.0.559,1,-388253323,2.0.10.356,2.0.10.356,01-14-2023,1/14/2023 9:58:57 AM,17:58:57,2.0.10.252,2,,,,2.0,1.0,1.0,BlockProc2,List3,1,,,,,,,,,,,,,,,,,,,,1.0,1.0,1.0,,,,ColorProc2,List4,,,,,,,,,9.0,BUTTON1.png,BUTTON2.PNG,BUTTON3.png,BUTTON4.png,yellowcircle2.png,,,,9.0,1.0,9.0,x,0.0,,,,,,,0.0,TrialProc,ColorList2,,,,,,,1.0,x,0.0,1.0,192158.0,0.0,x,1783.0,color
Wisconsin,1175,3,"<?xml version=""1.0""?>\n<Clock xmlns:dt=""urn:schemas-microsoft-com:datatypes""><Description dt:dt=""string"">E-Prime Primary Realtime Clock</Description><StartTime><Timestamp dt:dt=""int"">0</Timestamp><DateUtc dt:dt=""string"">2023-01-14T09:58:57Z</DateUtc></StartTime><FrequencyChanges><FrequencyChange><Frequency dt:dt=""r8"">2929853</Frequency><Timestamp dt:dt=""r8"">46855815817</Timestamp><Current dt:dt=""r8"">0</Current><DateUtc dt:dt=""string"">2023-01-14T09:58:57Z</DateUtc></FrequencyChange></FrequencyChanges></Clock>\n",Wisconsin-1175-3,59.957,1.0.0.559,1,-388253323,2.0.10.356,2.0.10.356,01-14-2023,1/14/2023 9:58:57 AM,17:58:57,2.0.10.252,2,,,,2.0,1.0,1.0,BlockProc2,List3,1,,,,,,,,,,,,,,,,,,,,1.0,1.0,1.0,,,,ColorProc2,List4,,,,,,,,,10.0,BUTTON1.png,BUTTON2.PNG,BUTTON3.png,BUTTON4.png,greenstar4.png,,,,5.0,1.0,10.0,z,1.0,,,,,,,0.0,TrialProc,ColorList2,,,,,,,0.0,z,0.0,1.0,196478.0,0.0,v,1719.0,color
Wisconsin,1175,3,"<?xml version=""1.0""?>\n<Clock xmlns:dt=""urn:schemas-microsoft-com:datatypes""><Description dt:dt=""string"">E-Prime Primary Realtime Clock</Description><StartTime><Timestamp dt:dt=""int"">0</Timestamp><DateUtc dt:dt=""string"">2023-01-14T09:58:57Z</DateUtc></StartTime><FrequencyChanges><FrequencyChange><Frequency dt:dt=""r8"">2929853</Frequency><Timestamp dt:dt=""r8"">46855815817</Timestamp><Current dt:dt=""r8"">0</Current><DateUtc dt:dt=""string"">2023-01-14T09:58:57Z</DateUtc></FrequencyChange></FrequencyChanges></Clock>\n",Wisconsin-1175-3,59.957,1.0.0.559,1,-388253323,2.0.10.356,2.0.10.356,01-14-2023,1/14/2023 9:58:57 AM,17:58:57,2.0.10.252,2,,,,2.0,1.0,1.0,BlockProc2,List3,2,,,,,,,,,,,,,,,,,,,,2.0,1.0,2.0,,,,NumberProc2,List4,,,,,,,,,1.0,Button1.png,Button2.png,Button3.png,Button4.png,Greencross2.png,,,,,,,z,1.0,,,,4.0,1.0,1.0,0.0,TrialProc,NumberList1,,,,,,,0.0,z,0.0,1.0,200731.0,0.0,x,1562.0,number
Wisconsin,1175,3,"<?xml version=""1.0""?>\n<Clock xmlns:dt=""urn:schemas-microsoft-com:datatypes""><Description dt:dt=""string"">E-Prime Primary Realtime Clock</Description><StartTime><Timestamp dt:dt=""int"">0</Timestamp><DateUtc dt:dt=""string"">2023-01-14T09:58:57Z</DateUtc></StartTime><FrequencyChanges><FrequencyChange><Frequency dt:dt=""r8"">2929853</Frequency><Timestamp dt:dt=""r8"">46855815817</Timestamp><Current dt:dt=""r8"">0</Current><DateUtc dt:dt=""string"">2023-01-14T09:58:57Z</DateUtc></FrequencyChange></FrequencyChanges></Clock>\n",Wisconsin-1175-3,59.957,1.0.0.559,1,-388253323,2.0.10.356,2.0.10.356,01-14-2023,1/14/2023 9:58:57 AM,17:58:57,2.0.10.252,2,,,,2.0,1.0,1.0,BlockProc2,List3,2,,,,,,,,,,,,,,,,,,,,2.0,1.0,2.0,,,,NumberProc2,List4,,,,,,,,,2.0,Button1.png,Button2.png,Button3.png,Button4.png,Bluestar4.png,,,,,,,x,1.0,,,,2.0,1.0,2.0,0.0,TrialProc,NumberList1,,,,,,,0.0,x,0.0,1.0,204834.0,0.0,v,1475.0,number
Wisconsin,1175,3,"<?xml version=""1.0""?>\n<Clock xmlns:dt=""urn:schemas-microsoft-com:datatypes""><Description dt:dt=""string"">E-Prime Primary Realtime Clock</Description><StartTime><Timestamp dt:dt=""int"">0</Timestamp><DateUtc dt:dt=""string"">2023-01-14T09:58:57Z</DateUtc></StartTime><FrequencyChanges><FrequencyChange><Frequency dt:dt=""r8"">2929853</Frequency><Timestamp dt:dt=""r8"">46855815817</Timestamp><Current dt:dt=""r8"">0</Current><DateUtc dt:dt=""string"">2023-01-14T09:58:57Z</DateUtc></FrequencyChange></FrequencyChanges></Clock>\n",Wisconsin-1175-3,59.957,1.0.0.559,1,-388253323,2.0.10.356,2.0.10.356,01-14-2023,1/14/2023 9:58:57 AM,17:58:57,2.0.10.252,2,,,,2.0,1.0,1.0,BlockProc2,List3,2,,,,,,,,,,,,,,,,,,,,2.0,1.0,2.0,,,,NumberProc2,List4,,,,,,,,,3.0,Button1.png,Button2.png,Button3.png,Button4.png,Yellowtriangle2.png,,,,,,,z,1.0,,,,10.0,1.0,3.0,0.0,TrialProc,NumberList1,,,,,,,0.0,z,0.0,1.0,208837.0,0.0,x,3295.0,number
Wisconsin,1175,3,"<?xml version=""1.0""?>\n<Clock xmlns:dt=""urn:schemas-microsoft-com:datatypes""><Description dt:dt=""string"">E-Prime Primary Realtime Clock</Description><StartTime><Timestamp dt:dt=""int"">0</Timestamp><DateUtc dt:dt=""string"">2023-01-14T09:58:57Z</DateUtc></StartTime><FrequencyChanges><FrequencyChange><Frequency dt:dt=""r8"">2929853</Frequency><Timestamp dt:dt=""r8"">46855815817</Timestamp><Current dt:dt=""r8"">0</Current><DateUtc dt:dt=""string"">2023-01-14T09:58:57Z</DateUtc></FrequencyChange></FrequencyChanges></Clock>\n",Wisconsin-1175-3,59.957,1.0.0.559,1,-388253323,2.0.10.356,2.0.10.356,01-14-2023,1/14/2023 9:58:57 AM,17:58:57,2.0.10.252,2,,,,2.0,1.0,1.0,BlockProc2,List3,2,,,,,,,,,,,,,,,,,,,,2.0,1.0,2.0,,,,NumberProc2,List4,,,,,,,,,4.0,Button1.png,Button2.png,Button3.png,Button4.png,Bluetriangle4.png,,,,,,,x,1.0,,,,3.0,1.0,4.0,0.0,TrialProc,NumberList1,,,,,,,0.0,x,0.0,1.0,214675.0,0.0,v,5361.0,number
Wisconsin,1175,3,"<?xml version=""1.0""?>\n<Clock xmlns:dt=""urn:schemas-microsoft-com:datatypes""><Description dt:dt=""string"">E-Prime Primary Realtime Clock</Description><StartTime><Timestamp dt:dt=""int"">0</Timestamp><DateUtc dt:dt=""string"">2023-01-14T09:58:57Z</DateUtc></StartTime><FrequencyChanges><FrequencyChange><Frequency dt:dt=""r8"">2929853</Frequency><Timestamp dt:dt=""r8"">46855815817</Timestamp><Current dt:dt=""r8"">0</Current><DateUtc dt:dt=""string"">2023-01-14T09:58:57Z</DateUtc></FrequencyChange></FrequencyChanges></Clock>\n",Wisconsin-1175-3,59.957,1.0.0.559,1,-388253323,2.0.10.356,2.0.10.356,01-14-2023,1/14/2023 9:58:57 AM,17:58:57,2.0.10.252,2,,,,2.0,1.0,1.0,BlockProc2,List3,2,,,,,,,,,,,,,,,,,,,,2.0,1.0,2.0,,,,NumberProc2,List4,,,,,,,,,5.0,Button1.png,Button2.png,Button3.png,Button4.png,Redstar1.png,,,,,,,v,1.0,,,,6.0,1.0,5.0,0.0,TrialProc,NumberList1,,,,,,,0.0,v,0.0,0.0,222580.0,0.0,z,1631.0,number
Wisconsin,1175,3,"<?xml version=""1.0""?>\n<Clock xmlns:dt=""urn:schemas-microsoft-com:datatypes""><Description dt:dt=""string"">E-Prime Primary Realtime Clock</Description><StartTime><Timestamp dt:dt=""int"">0</Timestamp><DateUtc dt:dt=""string"">2023-01-14T09:58:57Z</DateUtc></StartTime><FrequencyChanges><FrequencyChange><Frequency dt:dt=""r8"">2929853</Frequency><Timestamp dt:dt=""r8"">46855815817</Timestamp><Current dt:dt=""r8"">0</Current><DateUtc dt:dt=""string"">2023-01-14T09:58:57Z</DateUtc></FrequencyChange></FrequencyChanges></Clock>\n",Wisconsin-1175-3,59.957,1.0.0.559,1,-388253323,2.0.10.356,2.0.10.356,01-14-2023,1/14/2023 9:58:57 AM,17:58:57,2.0.10.252,2,,,,2.0,1.0,1.0,BlockProc2,List3,2,,,,,,,,,,,,,,,,,,,,2.0,1.0,2.0,,,,NumberProc2,List4,,,,,,,,,6.0,Button1.png,Button2.png,Button3.png,Button4.png,Redtriangle2.png,,,,,,,z,1.0,,,,7.0,1.0,6.0,0.0,TrialProc,NumberList1,,,,,,,0.0,z,0.0,1.0,226750.0,0.0,x,3589.0,number
Wisconsin,1175,3,"<?xml version=""1.0""?>\n<Clock xmlns:dt=""urn:schemas-microsoft-com:datatypes""><Description dt:dt=""string"">E-Prime Primary Realtime Clock</Description><StartTime><Timestamp dt:dt=""int"">0</Timestamp><DateUtc dt:dt=""string"">2023-01-14T09:58:57Z</DateUtc></StartTime><FrequencyChanges><FrequencyChange><Frequency dt:dt=""r8"">2929853</Frequency><Timestamp dt:dt=""r8"">46855815817</Timestamp><Current dt:dt=""r8"">0</Current><DateUtc dt:dt=""string"">2023-01-14T09:58:57Z</DateUtc></FrequencyChange></FrequencyChanges></Clock>\n",Wisconsin-1175-3,59.957,1.0.0.559,1,-388253323,2.0.10.356,2.0.10.356,01-14-2023,1/14/2023 9:58:57 AM,17:58:57,2.0.10.252,2,,,,2.0,1.0,1.0,BlockProc2,List3,2,,,,,,,,,,,,,,,,,,,,2.0,1.0,2.0,,,,NumberProc2,List4,,,,,,,,,7.0,Button1.png,Button2.png,Button3.png,Button4.png,Bluecross3.png,,,,,,,c,0.0,,,,1.0,1.0,7.0,0.0,TrialProc,NumberList1,,,,,,,1.0,c,0.0,1.0,232871.0,0.0,c,4748.0,number
Wisconsin,1175,3,"<?xml version=""1.0""?>\n<Clock xmlns:dt=""urn:schemas-microsoft-com:datatypes""><Description dt:dt=""string"">E-Prime Primary Realtime Clock</Description><StartTime><Timestamp dt:dt=""int"">0</Timestamp><DateUtc dt:dt=""string"">2023-01-14T09:58:57Z</DateUtc></StartTime><FrequencyChanges><FrequencyChange><Frequency dt:dt=""r8"">2929853</Frequency><Timestamp dt:dt=""r8"">46855815817</Timestamp><Current dt:dt=""r8"">0</Current><DateUtc dt:dt=""string"">2023-01-14T09:58:57Z</DateUtc></FrequencyChange></FrequencyChanges></Clock>\n",Wisconsin-1175-3,59.957,1.0.0.559,1,-388253323,2.0.10.356,2.0.10.356,01-14-2023,1/14/2023 9:58:57 AM,17:58:57,2.0.10.252,2,,,,2.0,1.0,1.0,BlockProc2,List3,2,,,,,,,,,,,,,,,,,,,,2.0,1.0,2.0,,,,NumberProc2,List4,,,,,,,,,8.0,Button1.png,Button2.png,Button3.png,Button4.png,Yellowcross2.png,,,,,,,z,0.0,,,,9.0,1.0,8.0,0.0,TrialProc,NumberList1,,,,,,,1.0,z,0.0,1.0,240160.0,0.0,z,5362.0,number
Wisconsin,1175,3,"<?xml version=""1.0""?>\n<Clock xmlns:dt=""urn:schemas-microsoft-com:datatypes""><Description dt:dt=""string"">E-Prime Primary Realtime Clock</Description><StartTime><Timestamp dt:dt=""int"">0</Timestamp><DateUtc dt:dt=""string"">2023-01-14T09:58:57Z</DateUtc></StartTime><FrequencyChanges><FrequencyChange><Frequency dt:dt=""r8"">2929853</Frequency><Timestamp dt:dt=""r8"">46855815817</Timestamp><Current dt:dt=""r8"">0</Current><DateUtc dt:dt=""string"">2023-01-14T09:58:57Z</DateUtc></FrequencyChange></FrequencyChanges></Clock>\n",Wisconsin-1175-3,59.957,1.0.0.559,1,-388253323,2.0.10.356,2.0.10.356,01-14-2023,1/14/2023 9:58:57 AM,17:58:57,2.0.10.252,2,,,,2.0,1.0,1.0,BlockProc2,List3,2,,,,,,,,,,,,,,,,,,,,2.0,1.0,2.0,,,,NumberProc2,List4,,,,,,,,,9.0,Button1.png,Button2.png,Button3.png,Button4.png,yellowcircle4.png,,,,,,,x,1.0,,,,8.0,1.0,9.0,0.0,TrialProc,NumberList1,,,,,,,0.0,x,1.0,0.0,248065.0,0.0,v,3745.0,number
Wisconsin,1175,3,"<?xml version=""1.0""?>\n<Clock xmlns:dt=""urn:schemas-microsoft-com:datatypes""><Description dt:dt=""string"">E-Prime Primary Realtime Clock</Description><StartTime><Timestamp dt:dt=""int"">0</Timestamp><DateUtc dt:dt=""string"">2023-01-14T09:58:57Z</DateUtc></StartTime><FrequencyChanges><FrequencyChange><Frequency dt:dt=""r8"">2929853</Frequency><Timestamp dt:dt=""r8"">46855815817</Timestamp><Current dt:dt=""r8"">0</Current><DateUtc dt:dt=""string"">2023-01-14T09:58:57Z</DateUtc></FrequencyChange></FrequencyChanges></Clock>\n",Wisconsin-1175-3,59.957,1.0.0.559,1,-388253323,2.0.10.356,2.0.10.356,01-14-2023,1/14/2023 9:58:57 AM,17:58:57,2.0.10.252,2,,,,2.0,1.0,1.0,BlockProc2,List3,2,,,,,,,,,,,,,,,,,,,,2.0,1.0,2.0,,,,NumberProc2,List4,,,,,,,,,10.0,Button1.png,Button2.png,Button3.png,Button4.png,Greenstar1.png,,,,,,,v,1.0,,,,5.0,1.0,10.0,0.0,TrialProc,NumberList1,,,,,,,0.0,v,0.0,0.0,254353.0,0.0,z,1873.0,number
Wisconsin,1175,3,"<?xml version=""1.0""?>\n<Clock xmlns:dt=""urn:schemas-microsoft-com:datatypes""><Description dt:dt=""string"">E-Prime Primary Realtime Clock</Description><StartTime><Timestamp dt:dt=""int"">0</Timestamp><DateUtc dt:dt=""string"">2023-01-14T09:58:57Z</DateUtc></StartTime><FrequencyChanges><FrequencyChange><Frequency dt:dt=""r8"">2929853</Frequency><Timestamp dt:dt=""r8"">46855815817</Timestamp><Current dt:dt=""r8"">0</Current><DateUtc dt:dt=""string"">2023-01-14T09:58:57Z</DateUtc></FrequencyChange></FrequencyChanges></Clock>\n",Wisconsin-1175-3,59.957,1.0.0.559,1,-388253323,2.0.10.356,2.0.10.356,01-14-2023,1/14/2023 9:58:57 AM,17:58:57,2.0.10.252,2,,,,2.0,1.0,1.0,BlockProc2,List3,3,,,,,,,,,,,,,,,,,,,,3.0,1.0,3.0,,,,ShapeProc2,List4,,,,,,,,,1.0,Button1.png,Button2.png,Button3.png,Button4.png,Yellowstar2.png,,,,,,,v,1.0,,,,,,,0.0,TrialProc,ShapeList1,,,,9.0,1.0,1.0,0.0,v,1.0,0.0,258756.0,0.0,x,2317.0,Shape
Wisconsin,1175,3,"<?xml version=""1.0""?>\n<Clock xmlns:dt=""urn:schemas-microsoft-com:datatypes""><Description dt:dt=""string"">E-Prime Primary Realtime Clock</Description><StartTime><Timestamp dt:dt=""int"">0</Timestamp><DateUtc dt:dt=""string"">2023-01-14T09:58:57Z</DateUtc></StartTime><FrequencyChanges><FrequencyChange><Frequency dt:dt=""r8"">2929853</Frequency><Timestamp dt:dt=""r8"">46855815817</Timestamp><Current dt:dt=""r8"">0</Current><DateUtc dt:dt=""string"">2023-01-14T09:58:57Z</DateUtc></FrequencyChange></FrequencyChanges></Clock>\n",Wisconsin-1175-3,59.957,1.0.0.559,1,-388253323,2.0.10.356,2.0.10.356,01-14-2023,1/14/2023 9:58:57 AM,17:58:57,2.0.10.252,2,,,,2.0,1.0,1.0,BlockProc2,List3,3,,,,,,,,,,,,,,,,,,,,3.0,1.0,3.0,,,,ShapeProc2,List4,,,,,,,,,2.0,Button1.png,Button2.png,Button3.png,Button4.png,Yellowtriangle1.png,,,,,,,x,1.0,,,,,,,0.0,TrialProc,ShapeList1,,,,10.0,1.0,2.0,0.0,x,0.0,1.0,263610.0,0.0,v,5687.0,Shape
Wisconsin,1175,3,"<?xml version=""1.0""?>\n<Clock xmlns:dt=""urn:schemas-microsoft-com:datatypes""><Description dt:dt=""string"">E-Prime Primary Realtime Clock</Description><StartTime><Timestamp dt:dt=""int"">0</Timestamp><DateUtc dt:dt=""string"">2023-01-14T09:58:57Z</DateUtc></StartTime><FrequencyChanges><FrequencyChange><Frequency dt:dt=""r8"">2929853</Frequency><Timestamp dt:dt=""r8"">46855815817</Timestamp><Current dt:dt=""r8"">0</Current><DateUtc dt:dt=""string"">2023-01-14T09:58:57Z</DateUtc></FrequencyChange></FrequencyChanges></Clock>\n",Wisconsin-1175-3,59.957,1.0.0.559,1,-388253323,2.0.10.356,2.0.10.356,01-14-2023,1/14/2023 9:58:57 AM,17:58:57,2.0.10.252,2,,,,2.0,1.0,1.0,BlockProc2,List3,3,,,,,,,,,,,,,,,,,,,,3.0,1.0,3.0,,,,ShapeProc2,List4,,,,,,,,,3.0,Button1.png,Button2.png,Button3.png,Button4.png,redcircle1.png,,,,,,,z,0.0,,,,,,,0.0,TrialProc,ShapeList1,,,,4.0,1.0,3.0,1.0,z,0.0,1.0,271833.0,0.0,z,3448.0,Shape
Wisconsin,1175,3,"<?xml version=""1.0""?>\n<Clock xmlns:dt=""urn:schemas-microsoft-com:datatypes""><Description dt:dt=""string"">E-Prime Primary Realtime Clock</Description><StartTime><Timestamp dt:dt=""int"">0</Timestamp><DateUtc dt:dt=""string"">2023-01-14T09:58:57Z</DateUtc></StartTime><FrequencyChanges><FrequencyChange><Frequency dt:dt=""r8"">2929853</Frequency><Timestamp dt:dt=""r8"">46855815817</Timestamp><Current dt:dt=""r8"">0</Current><DateUtc dt:dt=""string"">2023-01-14T09:58:57Z</DateUtc></FrequencyChange></FrequencyChanges></Clock>\n",Wisconsin-1175-3,59.957,1.0.0.559,1,-388253323,2.0.10.356,2.0.10.356,01-14-2023,1/14/2023 9:58:57 AM,17:58:57,2.0.10.252,2,,,,2.0,1.0,1.0,BlockProc2,List3,3,,,,,,,,,,,,,,,,,,,,3.0,1.0,3.0,,,,ShapeProc2,List4,,,,,,,,,4.0,Button1.png,Button2.png,Button3.png,Button4.png,Redstar3.png,,,,,,,v,1.0,,,,,,,0.0,TrialProc,ShapeList1,,,,6.0,1.0,4.0,0.0,v,0.0,0.0,277820.0,0.0,c,1972.0,Shape
Wisconsin,1175,3,"<?xml version=""1.0""?>\n<Clock xmlns:dt=""urn:schemas-microsoft-com:datatypes""><Description dt:dt=""string"">E-Prime Primary Realtime Clock</Description><StartTime><Timestamp dt:dt=""int"">0</Timestamp><DateUtc dt:dt=""string"">2023-01-14T09:58:57Z</DateUtc></StartTime><FrequencyChanges><FrequencyChange><Frequency dt:dt=""r8"">2929853</Frequency><Timestamp dt:dt=""r8"">46855815817</Timestamp><Current dt:dt=""r8"">0</Current><DateUtc dt:dt=""string"">2023-01-14T09:58:57Z</DateUtc></FrequencyChange></FrequencyChanges></Clock>\n",Wisconsin-1175-3,59.957,1.0.0.559,1,-388253323,2.0.10.356,2.0.10.356,01-14-2023,1/14/2023 9:58:57 AM,17:58:57,2.0.10.252,2,,,,2.0,1.0,1.0,BlockProc2,List3,3,,,,,,,,,,,,,,,,,,,,3.0,1.0,3.0,,,,ShapeProc2,List4,,,,,,,,,5.0,Button1.png,Button2.png,Button3.png,Button4.png,Redcross2.png,,,,,,,c,1.0,,,,,,,0.0,TrialProc,ShapeList1,,,,5.0,1.0,5.0,0.0,c,0.0,1.0,282324.0,0.0,x,1356.0,Shape
Wisconsin,1175,3,"<?xml version=""1.0""?>\n<Clock xmlns:dt=""urn:schemas-microsoft-com:datatypes""><Description dt:dt=""string"">E-Prime Primary Realtime Clock</Description><StartTime><Timestamp dt:dt=""int"">0</Timestamp><DateUtc dt:dt=""string"">2023-01-14T09:58:57Z</DateUtc></StartTime><FrequencyChanges><FrequencyChange><Frequency dt:dt=""r8"">2929853</Frequency><Timestamp dt:dt=""r8"">46855815817</Timestamp><Current dt:dt=""r8"">0</Current><DateUtc dt:dt=""string"">2023-01-14T09:58:57Z</DateUtc></FrequencyChange></FrequencyChanges></Clock>\n",Wisconsin-1175-3,59.957,1.0.0.559,1,-388253323,2.0.10.356,2.0.10.356,01-14-2023,1/14/2023 9:58:57 AM,17:58:57,2.0.10.252,2,,,,2.0,1.0,1.0,BlockProc2,List3,3,,,,,,,,,,,,,,,,,,,,3.0,1.0,3.0,,,,ShapeProc2,List4,,,,,,,,,6.0,Button1.png,Button2.png,Button3.png,Button4.png,Redtriangle3.png,,,,,,,x,1.0,,,,,,,0.0,TrialProc,ShapeList1,,,,7.0,1.0,6.0,0.0,x,0.0,1.0,286210.0,0.0,c,1358.0,Shape
Wisconsin,1175,3,"<?xml version=""1.0""?>\n<Clock xmlns:dt=""urn:schemas-microsoft-com:datatypes""><Description dt:dt=""string"">E-Prime Primary Realtime Clock</Description><StartTime><Timestamp dt:dt=""int"">0</Timestamp><DateUtc dt:dt=""string"">2023-01-14T09:58:57Z</DateUtc></StartTime><FrequencyChanges><FrequencyChange><Frequency dt:dt=""r8"">2929853</Frequency><Timestamp dt:dt=""r8"">46855815817</Timestamp><Current dt:dt=""r8"">0</Current><DateUtc dt:dt=""string"">2023-01-14T09:58:57Z</DateUtc></FrequencyChange></FrequencyChanges></Clock>\n",Wisconsin-1175-3,59.957,1.0.0.559,1,-388253323,2.0.10.356,2.0.10.356,01-14-2023,1/14/2023 9:58:57 AM,17:58:57,2.0.10.252,2,,,,2.0,1.0,1.0,BlockProc2,List3,3,,,,,,,,,,,,,,,,,,,,3.0,1.0,3.0,,,,ShapeProc2,List4,,,,,,,,,7.0,Button1.png,Button2.png,Button3.png,Button4.png,Bluecircle3.png,,,,,,,z,1.0,,,,,,,0.0,TrialProc,ShapeList1,,,,1.0,1.0,7.0,0.0,z,0.0,1.0,290113.0,0.0,c,1823.0,Shape
Wisconsin,1175,3,"<?xml version=""1.0""?>\n<Clock xmlns:dt=""urn:schemas-microsoft-com:datatypes""><Description dt:dt=""string"">E-Prime Primary Realtime Clock</Description><StartTime><Timestamp dt:dt=""int"">0</Timestamp><DateUtc dt:dt=""string"">2023-01-14T09:58:57Z</DateUtc></StartTime><FrequencyChanges><FrequencyChange><Frequency dt:dt=""r8"">2929853</Frequency><Timestamp dt:dt=""r8"">46855815817</Timestamp><Current dt:dt=""r8"">0</Current><DateUtc dt:dt=""string"">2023-01-14T09:58:57Z</DateUtc></FrequencyChange></FrequencyChanges></Clock>\n",Wisconsin-1175-3,59.957,1.0.0.559,1,-388253323,2.0.10.356,2.0.10.356,01-14-2023,1/14/2023 9:58:57 AM,17:58:57,2.0.10.252,2,,,,2.0,1.0,1.0,BlockProc2,List3,3,,,,,,,,,,,,,,,,,,,,3.0,1.0,3.0,,,,ShapeProc2,List4,,,,,,,,,8.0,Button1.png,Button2.png,Button3.png,Button4.png,Greenstar3.png,,,,,,,v,1.0,,,,,,,0.0,TrialProc,ShapeList1,,,,3.0,1.0,8.0,0.0,v,0.0,1.0,294466.0,0.0,c,2173.0,Shape
Wisconsin,1175,3,"<?xml version=""1.0""?>\n<Clock xmlns:dt=""urn:schemas-microsoft-com:datatypes""><Description dt:dt=""string"">E-Prime Primary Realtime Clock</Description><StartTime><Timestamp dt:dt=""int"">0</Timestamp><DateUtc dt:dt=""string"">2023-01-14T09:58:57Z</DateUtc></StartTime><FrequencyChanges><FrequencyChange><Frequency dt:dt=""r8"">2929853</Frequency><Timestamp dt:dt=""r8"">46855815817</Timestamp><Current dt:dt=""r8"">0</Current><DateUtc dt:dt=""string"">2023-01-14T09:58:57Z</DateUtc></FrequencyChange></FrequencyChanges></Clock>\n",Wisconsin-1175-3,59.957,1.0.0.559,1,-388253323,2.0.10.356,2.0.10.356,01-14-2023,1/14/2023 9:58:57 AM,17:58:57,2.0.10.252,2,,,,2.0,1.0,1.0,BlockProc2,List3,3,,,,,,,,,,,,,,,,,,,,3.0,1.0,3.0,,,,ShapeProc2,List4,,,,,,,,,9.0,Button1.png,Button2.png,Button3.png,Button4.png,yellowcross4.png,,,,,,,c,1.0,,,,,,,0.0,TrialProc,ShapeList1,,,,8.0,1.0,9.0,0.0,c,0.0,1.0,299169.0,0.0,v,1262.0,Shape
Wisconsin,1175,3,"<?xml version=""1.0""?>\n<Clock xmlns:dt=""urn:schemas-microsoft-com:datatypes""><Description dt:dt=""string"">E-Prime Primary Realtime Clock</Description><StartTime><Timestamp dt:dt=""int"">0</Timestamp><DateUtc dt:dt=""string"">2023-01-14T09:58:57Z</DateUtc></StartTime><FrequencyChanges><FrequencyChange><Frequency dt:dt=""r8"">2929853</Frequency><Timestamp dt:dt=""r8"">46855815817</Timestamp><Current dt:dt=""r8"">0</Current><DateUtc dt:dt=""string"">2023-01-14T09:58:57Z</DateUtc></FrequencyChange></FrequencyChanges></Clock>\n",Wisconsin-1175-3,59.957,1.0.0.559,1,-388253323,2.0.10.356,2.0.10.356,01-14-2023,1/14/2023 9:58:57 AM,17:58:57,2.0.10.252,2,,,,2.0,1.0,1.0,BlockProc2,List3,3,,,,,,,,,,,,,,,,,,,,3.0,1.0,3.0,,,,ShapeProc2,List4,,,,,,,,,10.0,Button1.png,Button2.png,Button3.png,Button4.png,Bluetriangle2.png,,,,,,,x,0.0,,,,,,,0.0,TrialProc,ShapeList1,,,,2.0,1.0,10.0,1.0,x,0.0,1.0,302972.0,0.0,x,1523.0,Shape
Wisconsin,1175,3,"<?xml version=""1.0""?>\n<Clock xmlns:dt=""urn:schemas-microsoft-com:datatypes""><Description dt:dt=""string"">E-Prime Primary Realtime Clock</Description><StartTime><Timestamp dt:dt=""int"">0</Timestamp><DateUtc dt:dt=""string"">2023-01-14T09:58:57Z</DateUtc></StartTime><FrequencyChanges><FrequencyChange><Frequency dt:dt=""r8"">2929853</Frequency><Timestamp dt:dt=""r8"">46855815817</Timestamp><Current dt:dt=""r8"">0</Current><DateUtc dt:dt=""string"">2023-01-14T09:58:57Z</DateUtc></FrequencyChange></FrequencyChanges></Clock>\n",Wisconsin-1175-3,59.957,1.0.0.559,1,-388253323,2.0.10.356,2.0.10.356,01-14-2023,1/14/2023 9:58:57 AM,17:58:57,2.0.10.252,3,,,,1.0,1.0,2.0,BlockProc,List3,1,,,,,,,,,,,,,,,,,3.0,1.0,1.0,,,,,,,ShapeProc,List2,,,,,,,,,1.0,Button1.png,Button2.png,Button3.png,Button4.png,Redcross4.png,,,,,,,c,1.0,,,,,,,0.0,TrialProc,ShapeList,6.0,1.0,1.0,,,,0.0,c,0.0,1.0,307025.0,0.0,x,7981.0,Shape
Wisconsin,1175,3,"<?xml version=""1.0""?>\n<Clock xmlns:dt=""urn:schemas-microsoft-com:datatypes""><Description dt:dt=""string"">E-Prime Primary Realtime Clock</Description><StartTime><Timestamp dt:dt=""int"">0</Timestamp><DateUtc dt:dt=""string"">2023-01-14T09:58:57Z</DateUtc></StartTime><FrequencyChanges><FrequencyChange><Frequency dt:dt=""r8"">2929853</Frequency><Timestamp dt:dt=""r8"">46855815817</Timestamp><Current dt:dt=""r8"">0</Current><DateUtc dt:dt=""string"">2023-01-14T09:58:57Z</DateUtc></FrequencyChange></FrequencyChanges></Clock>\n",Wisconsin-1175-3,59.957,1.0.0.559,1,-388253323,2.0.10.356,2.0.10.356,01-14-2023,1/14/2023 9:58:57 AM,17:58:57,2.0.10.252,3,,,,1.0,1.0,2.0,BlockProc,List3,1,,,,,,,,,,,,,,,,,3.0,1.0,1.0,,,,,,,ShapeProc,List2,,,,,,,,,2.0,Button1.png,Button2.png,Button3.png,Button4.png,Bluecircle2.png,,,,,,,z,0.0,,,,,,,0.0,TrialProc,ShapeList,1.0,1.0,2.0,,,,1.0,z,0.0,1.0,317549.0,0.0,z,7681.0,Shape
Wisconsin,1175,3,"<?xml version=""1.0""?>\n<Clock xmlns:dt=""urn:schemas-microsoft-com:datatypes""><Description dt:dt=""string"">E-Prime Primary Realtime Clock</Description><StartTime><Timestamp dt:dt=""int"">0</Timestamp><DateUtc dt:dt=""string"">2023-01-14T09:58:57Z</DateUtc></StartTime><FrequencyChanges><FrequencyChange><Frequency dt:dt=""r8"">2929853</Frequency><Timestamp dt:dt=""r8"">46855815817</Timestamp><Current dt:dt=""r8"">0</Current><DateUtc dt:dt=""string"">2023-01-14T09:58:57Z</DateUtc></FrequencyChange></FrequencyChanges></Clock>\n",Wisconsin-1175-3,59.957,1.0.0.559,1,-388253323,2.0.10.356,2.0.10.356,01-14-2023,1/14/2023 9:58:57 AM,17:58:57,2.0.10.252,3,,,,1.0,1.0,2.0,BlockProc,List3,1,,,,,,,,,,,,,,,,,3.0,1.0,1.0,,,,,,,ShapeProc,List2,,,,,,,,,3.0,Button1.png,Button2.png,Button3.png,Button4.png,Greentriangle4.png,,,,,,,x,1.0,,,,,,,0.0,TrialProc,ShapeList,4.0,1.0,3.0,,,,0.0,x,0.0,0.0,327773.0,0.0,c,2529.0,Shape
Wisconsin,1175,3,"<?xml version=""1.0""?>\n<Clock xmlns:dt=""urn:schemas-microsoft-com:datatypes""><Description dt:dt=""string"">E-Prime Primary Realtime Clock</Description><StartTime><Timestamp dt:dt=""int"">0</Timestamp><DateUtc dt:dt=""string"">2023-01-14T09:58:57Z</DateUtc></StartTime><FrequencyChanges><FrequencyChange><Frequency dt:dt=""r8"">2929853</Frequency><Timestamp dt:dt=""r8"">46855815817</Timestamp><Current dt:dt=""r8"">0</Current><DateUtc dt:dt=""string"">2023-01-14T09:58:57Z</DateUtc></FrequencyChange></FrequencyChanges></Clock>\n",Wisconsin-1175-3,59.957,1.0.0.559,1,-388253323,2.0.10.356,2.0.10.356,01-14-2023,1/14/2023 9:58:57 AM,17:58:57,2.0.10.252,3,,,,1.0,1.0,2.0,BlockProc,List3,1,,,,,,,,,,,,,,,,,3.0,1.0,1.0,,,,,,,ShapeProc,List2,,,,,,,,,4.0,Button1.png,Button2.png,Button3.png,Button4.png,yellowcircle3.png,,,,,,,z,1.0,,,,,,,0.0,TrialProc,ShapeList,8.0,1.0,4.0,,,,0.0,z,0.0,1.0,332844.0,0.0,c,2161.0,Shape
Wisconsin,1175,3,"<?xml version=""1.0""?>\n<Clock xmlns:dt=""urn:schemas-microsoft-com:datatypes""><Description dt:dt=""string"">E-Prime Primary Realtime Clock</Description><StartTime><Timestamp dt:dt=""int"">0</Timestamp><DateUtc dt:dt=""string"">2023-01-14T09:58:57Z</DateUtc></StartTime><FrequencyChanges><FrequencyChange><Frequency dt:dt=""r8"">2929853</Frequency><Timestamp dt:dt=""r8"">46855815817</Timestamp><Current dt:dt=""r8"">0</Current><DateUtc dt:dt=""string"">2023-01-14T09:58:57Z</DateUtc></FrequencyChange></FrequencyChanges></Clock>\n",Wisconsin-1175-3,59.957,1.0.0.559,1,-388253323,2.0.10.356,2.0.10.356,01-14-2023,1/14/2023 9:58:57 AM,17:58:57,2.0.10.252,3,,,,1.0,1.0,2.0,BlockProc,List3,1,,,,,,,,,,,,,,,,,3.0,1.0,1.0,,,,,,,ShapeProc,List2,,,,,,,,,5.0,Button1.png,Button2.png,Button3.png,Button4.png,Redcross1.png,,,,,,,c,0.0,,,,,,,0.0,TrialProc,ShapeList,5.0,1.0,5.0,,,,1.0,c,0.0,1.0,337547.0,0.0,c,4386.0,Shape
Wisconsin,1175,3,"<?xml version=""1.0""?>\n<Clock xmlns:dt=""urn:schemas-microsoft-com:datatypes""><Description dt:dt=""string"">E-Prime Primary Realtime Clock</Description><StartTime><Timestamp dt:dt=""int"">0</Timestamp><DateUtc dt:dt=""string"">2023-01-14T09:58:57Z</DateUtc></StartTime><FrequencyChanges><FrequencyChange><Frequency dt:dt=""r8"">2929853</Frequency><Timestamp dt:dt=""r8"">46855815817</Timestamp><Current dt:dt=""r8"">0</Current><DateUtc dt:dt=""string"">2023-01-14T09:58:57Z</DateUtc></FrequencyChange></FrequencyChanges></Clock>\n",Wisconsin-1175-3,59.957,1.0.0.559,1,-388253323,2.0.10.356,2.0.10.356,01-14-2023,1/14/2023 9:58:57 AM,17:58:57,2.0.10.252,3,,,,1.0,1.0,2.0,BlockProc,List3,1,,,,,,,,,,,,,,,,,3.0,1.0,1.0,,,,,,,ShapeProc,List2,,,,,,,,,6.0,Button1.png,Button2.png,Button3.png,Button4.png,Bluecross4.png,,,,,,,c,0.0,,,,,,,0.0,TrialProc,ShapeList,2.0,1.0,6.0,,,,1.0,c,0.0,1.0,344469.0,0.0,c,5207.0,Shape
Wisconsin,1175,3,"<?xml version=""1.0""?>\n<Clock xmlns:dt=""urn:schemas-microsoft-com:datatypes""><Description dt:dt=""string"">E-Prime Primary Realtime Clock</Description><StartTime><Timestamp dt:dt=""int"">0</Timestamp><DateUtc dt:dt=""string"">2023-01-14T09:58:57Z</DateUtc></StartTime><FrequencyChanges><FrequencyChange><Frequency dt:dt=""r8"">2929853</Frequency><Timestamp dt:dt=""r8"">46855815817</Timestamp><Current dt:dt=""r8"">0</Current><DateUtc dt:dt=""string"">2023-01-14T09:58:57Z</DateUtc></FrequencyChange></FrequencyChanges></Clock>\n",Wisconsin-1175-3,59.957,1.0.0.559,1,-388253323,2.0.10.356,2.0.10.356,01-14-2023,1/14/2023 9:58:57 AM,17:58:57,2.0.10.252,3,,,,1.0,1.0,2.0,BlockProc,List3,1,,,,,,,,,,,,,,,,,3.0,1.0,1.0,,,,,,,ShapeProc,List2,,,,,,,,,7.0,Button1.png,Button2.png,Button3.png,Button4.png,Yellowstar4.png,,,,,,,v,1.0,,,,,,,0.0,TrialProc,ShapeList,10.0,1.0,7.0,,,,0.0,v,0.0,1.0,352208.0,0.0,x,5340.0,Shape
Wisconsin,1175,3,"<?xml version=""1.0""?>\n<Clock xmlns:dt=""urn:schemas-microsoft-com:datatypes""><Description dt:dt=""string"">E-Prime Primary Realtime Clock</Description><StartTime><Timestamp dt:dt=""int"">0</Timestamp><DateUtc dt:dt=""string"">2023-01-14T09:58:57Z</DateUtc></StartTime><FrequencyChanges><FrequencyChange><Frequency dt:dt=""r8"">2929853</Frequency><Timestamp dt:dt=""r8"">46855815817</Timestamp><Current dt:dt=""r8"">0</Current><DateUtc dt:dt=""string"">2023-01-14T09:58:57Z</DateUtc></FrequencyChange></FrequencyChanges></Clock>\n",Wisconsin-1175-3,59.957,1.0.0.559,1,-388253323,2.0.10.356,2.0.10.356,01-14-2023,1/14/2023 9:58:57 AM,17:58:57,2.0.10.252,3,,,,1.0,1.0,2.0,BlockProc,List3,1,,,,,,,,,,,,,,,,,3.0,1.0,1.0,,,,,,,ShapeProc,List2,,,,,,,,,8.0,Button1.png,Button2.png,Button3.png,Button4.png,Yellowstar1.png,,,,,,,v,0.0,,,,,,,0.0,TrialProc,ShapeList,9.0,1.0,8.0,,,,1.0,v,0.0,1.0,360080.0,0.0,v,5547.0,Shape
Wisconsin,1175,3,"<?xml version=""1.0""?>\n<Clock xmlns:dt=""urn:schemas-microsoft-com:datatypes""><Description dt:dt=""string"">E-Prime Primary Realtime Clock</Description><StartTime><Timestamp dt:dt=""int"">0</Timestamp><DateUtc dt:dt=""string"">2023-01-14T09:58:57Z</DateUtc></StartTime><FrequencyChanges><FrequencyChange><Frequency dt:dt=""r8"">2929853</Frequency><Timestamp dt:dt=""r8"">46855815817</Timestamp><Current dt:dt=""r8"">0</Current><DateUtc dt:dt=""string"">2023-01-14T09:58:57Z</DateUtc></FrequencyChange></FrequencyChanges></Clock>\n",Wisconsin-1175-3,59.957,1.0.0.559,1,-388253323,2.0.10.356,2.0.10.356,01-14-2023,1/14/2023 9:58:57 AM,17:58:57,2.0.10.252,3,,,,1.0,1.0,2.0,BlockProc,List3,1,,,,,,,,,,,,,,,,,3.0,1.0,1.0,,,,,,,ShapeProc,List2,,,,,,,,,9.0,Button1.png,Button2.png,Button3.png,Button4.png,Redtriangle1.png,,,,,,,x,0.0,,,,,,,0.0,TrialProc,ShapeList,7.0,1.0,9.0,,,,1.0,x,0.0,1.0,368169.0,0.0,x,3890.0,Shape
Wisconsin,1175,3,"<?xml version=""1.0""?>\n<Clock xmlns:dt=""urn:schemas-microsoft-com:datatypes""><Description dt:dt=""string"">E-Prime Primary Realtime Clock</Description><StartTime><Timestamp dt:dt=""int"">0</Timestamp><DateUtc dt:dt=""string"">2023-01-14T09:58:57Z</DateUtc></StartTime><FrequencyChanges><FrequencyChange><Frequency dt:dt=""r8"">2929853</Frequency><Timestamp dt:dt=""r8"">46855815817</Timestamp><Current dt:dt=""r8"">0</Current><DateUtc dt:dt=""string"">2023-01-14T09:58:57Z</DateUtc></FrequencyChange></FrequencyChanges></Clock>\n",Wisconsin-1175-3,59.957,1.0.0.559,1,-388253323,2.0.10.356,2.0.10.356,01-14-2023,1/14/2023 9:58:57 AM,17:58:57,2.0.10.252,3,,,,1.0,1.0,2.0,BlockProc,List3,1,,,,,,,,,,,,,,,,,3.0,1.0,1.0,,,,,,,ShapeProc,List2,,,,,,,,,10.0,Button1.png,Button2.png,Button3.png,Button4.png,Greencross1.png,,,,,,,c,0.0,,,,,,,0.0,TrialProc,ShapeList,3.0,1.0,10.0,,,,1.0,c,0.0,1.0,374591.0,0.0,c,4252.0,Shape
Wisconsin,1175,3,"<?xml version=""1.0""?>\n<Clock xmlns:dt=""urn:schemas-microsoft-com:datatypes""><Description dt:dt=""string"">E-Prime Primary Realtime Clock</Description><StartTime><Timestamp dt:dt=""int"">0</Timestamp><DateUtc dt:dt=""string"">2023-01-14T09:58:57Z</DateUtc></StartTime><FrequencyChanges><FrequencyChange><Frequency dt:dt=""r8"">2929853</Frequency><Timestamp dt:dt=""r8"">46855815817</Timestamp><Current dt:dt=""r8"">0</Current><DateUtc dt:dt=""string"">2023-01-14T09:58:57Z</DateUtc></FrequencyChange></FrequencyChanges></Clock>\n",Wisconsin-1175-3,59.957,1.0.0.559,1,-388253323,2.0.10.356,2.0.10.356,01-14-2023,1/14/2023 9:58:57 AM,17:58:57,2.0.10.252,3,,,,1.0,1.0,2.0,BlockProc,List3,2,,,,,,,,,,,,,,,,,1.0,1.0,2.0,,,,,,,ColorProc,List2,,,,,,,,,1.0,BUTTON1.png,BUTTON2.PNG,BUTTON3.png,BUTTON4.png,greencircle3.png,4.0,1.0,1.0,,,,z,0.0,,,,,,,0.0,TrialProc,ColorList,,,,,,,1.0,z,0.0,1.0,381379.0,0.0,z,6519.0,color
Wisconsin,1175,3,"<?xml version=""1.0""?>\n<Clock xmlns:dt=""urn:schemas-microsoft-com:datatypes""><Description dt:dt=""string"">E-Prime Primary Realtime Clock</Description><StartTime><Timestamp dt:dt=""int"">0</Timestamp><DateUtc dt:dt=""string"">2023-01-14T09:58:57Z</DateUtc></StartTime><FrequencyChanges><FrequencyChange><Frequency dt:dt=""r8"">2929853</Frequency><Timestamp dt:dt=""r8"">46855815817</Timestamp><Current dt:dt=""r8"">0</Current><DateUtc dt:dt=""string"">2023-01-14T09:58:57Z</DateUtc></FrequencyChange></FrequencyChanges></Clock>\n",Wisconsin-1175-3,59.957,1.0.0.559,1,-388253323,2.0.10.356,2.0.10.356,01-14-2023,1/14/2023 9:58:57 AM,17:58:57,2.0.10.252,3,,,,1.0,1.0,2.0,BlockProc,List3,2,,,,,,,,,,,,,,,,,1.0,1.0,2.0,,,,,,,ColorProc,List2,,,,,,,,,2.0,BUTTON1.png,BUTTON2.PNG,BUTTON3.png,BUTTON4.png,redcircle3.png,8.0,1.0,2.0,,,,c,0.0,,,,,,,0.0,TrialProc,ColorList,,,,,,,1.0,c,0.0,0.0,390435.0,0.0,c,4471.0,color
Wisconsin,1175,3,"<?xml version=""1.0""?>\n<Clock xmlns:dt=""urn:schemas-microsoft-com:datatypes""><Description dt:dt=""string"">E-Prime Primary Realtime Clock</Description><StartTime><Timestamp dt:dt=""int"">0</Timestamp><DateUtc dt:dt=""string"">2023-01-14T09:58:57Z</DateUtc></StartTime><FrequencyChanges><FrequencyChange><Frequency dt:dt=""r8"">2929853</Frequency><Timestamp dt:dt=""r8"">46855815817</Timestamp><Current dt:dt=""r8"">0</Current><DateUtc dt:dt=""string"">2023-01-14T09:58:57Z</DateUtc></FrequencyChange></FrequencyChanges></Clock>\n",Wisconsin-1175-3,59.957,1.0.0.559,1,-388253323,2.0.10.356,2.0.10.356,01-14-2023,1/14/2023 9:58:57 AM,17:58:57,2.0.10.252,3,,,,1.0,1.0,2.0,BlockProc,List3,2,,,,,,,,,,,,,,,,,1.0,1.0,2.0,,,,,,,ColorProc,List2,,,,,,,,,3.0,BUTTON1.png,BUTTON2.PNG,BUTTON3.png,BUTTON4.png,greentriangle3.png,7.0,1.0,3.0,,,,z,1.0,,,,,,,0.0,TrialProc,ColorList,,,,,,,0.0,z,1.0,0.0,397440.0,0.0,x,4665.0,color
Wisconsin,1175,3,"<?xml version=""1.0""?>\n<Clock xmlns:dt=""urn:schemas-microsoft-com:datatypes""><Description dt:dt=""string"">E-Prime Primary Realtime Clock</Description><StartTime><Timestamp dt:dt=""int"">0</Timestamp><DateUtc dt:dt=""string"">2023-01-14T09:58:57Z</DateUtc></StartTime><FrequencyChanges><FrequencyChange><Frequency dt:dt=""r8"">2929853</Frequency><Timestamp dt:dt=""r8"">46855815817</Timestamp><Current dt:dt=""r8"">0</Current><DateUtc dt:dt=""string"">2023-01-14T09:58:57Z</DateUtc></FrequencyChange></FrequencyChanges></Clock>\n",Wisconsin-1175-3,59.957,1.0.0.559,1,-388253323,2.0.10.356,2.0.10.356,01-14-2023,1/14/2023 9:58:57 AM,17:58:57,2.0.10.252,3,,,,1.0,1.0,2.0,BlockProc,List3,2,,,,,,,,,,,,,,,,,1.0,1.0,2.0,,,,,,,ColorProc,List2,,,,,,,,,4.0,BUTTON1.png,BUTTON2.PNG,BUTTON3.png,BUTTON4.png,greenstar2.png,5.0,1.0,4.0,,,,z,1.0,,,,,,,0.0,TrialProc,ColorList,,,,,,,0.0,z,0.0,1.0,404646.0,0.0,x,4563.0,color
Wisconsin,1175,3,"<?xml version=""1.0""?>\n<Clock xmlns:dt=""urn:schemas-microsoft-com:datatypes""><Description dt:dt=""string"">E-Prime Primary Realtime Clock</Description><StartTime><Timestamp dt:dt=""int"">0</Timestamp><DateUtc dt:dt=""string"">2023-01-14T09:58:57Z</DateUtc></StartTime><FrequencyChanges><FrequencyChange><Frequency dt:dt=""r8"">2929853</Frequency><Timestamp dt:dt=""r8"">46855815817</Timestamp><Current dt:dt=""r8"">0</Current><DateUtc dt:dt=""string"">2023-01-14T09:58:57Z</DateUtc></FrequencyChange></FrequencyChanges></Clock>\n",Wisconsin-1175-3,59.957,1.0.0.559,1,-388253323,2.0.10.356,2.0.10.356,01-14-2023,1/14/2023 9:58:57 AM,17:58:57,2.0.10.252,3,,,,1.0,1.0,2.0,BlockProc,List3,2,,,,,,,,,,,,,,,,,1.0,1.0,2.0,,,,,,,ColorProc,List2,,,,,,,,,5.0,BUTTON1.png,BUTTON2.PNG,BUTTON3.png,BUTTON4.png,yellowstar3.png,10.0,1.0,5.0,,,,x,1.0,,,,,,,0.0,TrialProc,ColorList,,,,,,,0.0,x,0.0,1.0,411751.0,0.0,c,3826.0,color
Wisconsin,1175,3,"<?xml version=""1.0""?>\n<Clock xmlns:dt=""urn:schemas-microsoft-com:datatypes""><Description dt:dt=""string"">E-Prime Primary Realtime Clock</Description><StartTime><Timestamp dt:dt=""int"">0</Timestamp><DateUtc dt:dt=""string"">2023-01-14T09:58:57Z</DateUtc></StartTime><FrequencyChanges><FrequencyChange><Frequency dt:dt=""r8"">2929853</Frequency><Timestamp dt:dt=""r8"">46855815817</Timestamp><Current dt:dt=""r8"">0</Current><DateUtc dt:dt=""string"">2023-01-14T09:58:57Z</DateUtc></FrequencyChange></FrequencyChanges></Clock>\n",Wisconsin-1175-3,59.957,1.0.0.559,1,-388253323,2.0.10.356,2.0.10.356,01-14-2023,1/14/2023 9:58:57 AM,17:58:57,2.0.10.252,3,,,,1.0,1.0,2.0,BlockProc,List3,2,,,,,,,,,,,,,,,,,1.0,1.0,2.0,,,,,,,ColorProc,List2,,,,,,,,,6.0,BUTTON1.png,BUTTON2.PNG,BUTTON3.png,BUTTON4.png,bluetriangle3.png,3.0,1.0,6.0,,,,v,1.0,,,,,,,0.0,TrialProc,ColorList,,,,,,,0.0,v,0.0,1.0,418122.0,10057.0,,0.0,color
Wisconsin,1175,3,"<?xml version=""1.0""?>\n<Clock xmlns:dt=""urn:schemas-microsoft-com:datatypes""><Description dt:dt=""string"">E-Prime Primary Realtime Clock</Description><StartTime><Timestamp dt:dt=""int"">0</Timestamp><DateUtc dt:dt=""string"">2023-01-14T09:58:57Z</DateUtc></StartTime><FrequencyChanges><FrequencyChange><Frequency dt:dt=""r8"">2929853</Frequency><Timestamp dt:dt=""r8"">46855815817</Timestamp><Current dt:dt=""r8"">0</Current><DateUtc dt:dt=""string"">2023-01-14T09:58:57Z</DateUtc></FrequencyChange></FrequencyChanges></Clock>\n",Wisconsin-1175-3,59.957,1.0.0.559,1,-388253323,2.0.10.356,2.0.10.356,01-14-2023,1/14/2023 9:58:57 AM,17:58:57,2.0.10.252,3,,,,1.0,1.0,2.0,BlockProc,List3,2,,,,,,,,,,,,,,,,,1.0,1.0,2.0,,,,,,,ColorProc,List2,,,,,,,,,7.0,BUTTON1.png,BUTTON2.PNG,BUTTON3.png,BUTTON4.png,bluecross2.png,2.0,1.0,7.0,,,,v,1.0,,,,,,,0.0,TrialProc,ColorList,,,,,,,0.0,v,0.0,1.0,430698.0,0.0,x,2734.0,color
Wisconsin,1175,3,"<?xml version=""1.0""?>\n<Clock xmlns:dt=""urn:schemas-microsoft-com:datatypes""><Description dt:dt=""string"">E-Prime Primary Realtime Clock</Description><StartTime><Timestamp dt:dt=""int"">0</Timestamp><DateUtc dt:dt=""string"">2023-01-14T09:58:57Z</DateUtc></StartTime><FrequencyChanges><FrequencyChange><Frequency dt:dt=""r8"">2929853</Frequency><Timestamp dt:dt=""r8"">46855815817</Timestamp><Current dt:dt=""r8"">0</Current><DateUtc dt:dt=""string"">2023-01-14T09:58:57Z</DateUtc></FrequencyChange></FrequencyChanges></Clock>\n",Wisconsin-1175-3,59.957,1.0.0.559,1,-388253323,2.0.10.356,2.0.10.356,01-14-2023,1/14/2023 9:58:57 AM,17:58:57,2.0.10.252,3,,,,1.0,1.0,2.0,BlockProc,List3,2,,,,,,,,,,,,,,,,,1.0,1.0,2.0,,,,,,,ColorProc,List2,,,,,,,,,8.0,BUTTON1.png,BUTTON2.PNG,BUTTON3.png,BUTTON4.png,yellowcircle1.png,9.0,1.0,8.0,,,,x,1.0,,,,,,,0.0,TrialProc,ColorList,,,,,,,0.0,x,0.0,0.0,435968.0,0.0,z,1863.0,color
Wisconsin,1175,3,"<?xml version=""1.0""?>\n<Clock xmlns:dt=""urn:schemas-microsoft-com:datatypes""><Description dt:dt=""string"">E-Prime Primary Realtime Clock</Description><StartTime><Timestamp dt:dt=""int"">0</Timestamp><DateUtc dt:dt=""string"">2023-01-14T09:58:57Z</DateUtc></StartTime><FrequencyChanges><FrequencyChange><Frequency dt:dt=""r8"">2929853</Frequency><Timestamp dt:dt=""r8"">46855815817</Timestamp><Current dt:dt=""r8"">0</Current><DateUtc dt:dt=""string"">2023-01-14T09:58:57Z</DateUtc></FrequencyChange></FrequencyChanges></Clock>\n",Wisconsin-1175-3,59.957,1.0.0.559,1,-388253323,2.0.10.356,2.0.10.356,01-14-2023,1/14/2023 9:58:57 AM,17:58:57,2.0.10.252,3,,,,1.0,1.0,2.0,BlockProc,List3,2,,,,,,,,,,,,,,,,,1.0,1.0,2.0,,,,,,,ColorProc,List2,,,,,,,,,9.0,BUTTON1.png,BUTTON2.PNG,BUTTON3.png,BUTTON4.png,greentriangle1.png,6.0,1.0,9.0,,,,z,0.0,,,,,,,0.0,TrialProc,ColorList,,,,,,,1.0,z,0.0,1.0,440372.0,0.0,z,6291.0,color
Wisconsin,1175,3,"<?xml version=""1.0""?>\n<Clock xmlns:dt=""urn:schemas-microsoft-com:datatypes""><Description dt:dt=""string"">E-Prime Primary Realtime Clock</Description><StartTime><Timestamp dt:dt=""int"">0</Timestamp><DateUtc dt:dt=""string"">2023-01-14T09:58:57Z</DateUtc></StartTime><FrequencyChanges><FrequencyChange><Frequency dt:dt=""r8"">2929853</Frequency><Timestamp dt:dt=""r8"">46855815817</Timestamp><Current dt:dt=""r8"">0</Current><DateUtc dt:dt=""string"">2023-01-14T09:58:57Z</DateUtc></FrequencyChange></FrequencyChanges></Clock>\n",Wisconsin-1175-3,59.957,1.0.0.559,1,-388253323,2.0.10.356,2.0.10.356,01-14-2023,1/14/2023 9:58:57 AM,17:58:57,2.0.10.252,3,,,,1.0,1.0,2.0,BlockProc,List3,2,,,,,,,,,,,,,,,,,1.0,1.0,2.0,,,,,,,ColorProc,List2,,,,,,,,,10.0,BUTTON1.png,BUTTON2.PNG,BUTTON3.png,BUTTON4.png,bluecircle1.png,1.0,1.0,10.0,,,,v,1.0,,,,,,,0.0,TrialProc,ColorList,,,,,,,0.0,v,0.0,1.0,449195.0,0.0,z,5883.0,color
Wisconsin,1175,3,"<?xml version=""1.0""?>\n<Clock xmlns:dt=""urn:schemas-microsoft-com:datatypes""><Description dt:dt=""string"">E-Prime Primary Realtime Clock</Description><StartTime><Timestamp dt:dt=""int"">0</Timestamp><DateUtc dt:dt=""string"">2023-01-14T09:58:57Z</DateUtc></StartTime><FrequencyChanges><FrequencyChange><Frequency dt:dt=""r8"">2929853</Frequency><Timestamp dt:dt=""r8"">46855815817</Timestamp><Current dt:dt=""r8"">0</Current><DateUtc dt:dt=""string"">2023-01-14T09:58:57Z</DateUtc></FrequencyChange></FrequencyChanges></Clock>\n",Wisconsin-1175-3,59.957,1.0.0.559,1,-388253323,2.0.10.356,2.0.10.356,01-14-2023,1/14/2023 9:58:57 AM,17:58:57,2.0.10.252,3,,,,1.0,1.0,2.0,BlockProc,List3,3,,,,,,,,,,,,,,,,,2.0,1.0,3.0,,,,,,,NumberProc,List2,,,,,,,,,1.0,Button1.png,Button2.png,Button3.png,Button4.png,Yellowcross1.png,,,,,,,v,1.0,9.0,1.0,1.0,,,,0.0,TrialProc,NumberList,,,,,,,0.0,v,0.0,0.0,457617.0,0.0,x,3909.0,number
Wisconsin,1175,3,"<?xml version=""1.0""?>\n<Clock xmlns:dt=""urn:schemas-microsoft-com:datatypes""><Description dt:dt=""string"">E-Prime Primary Realtime Clock</Description><StartTime><Timestamp dt:dt=""int"">0</Timestamp><DateUtc dt:dt=""string"">2023-01-14T09:58:57Z</DateUtc></StartTime><FrequencyChanges><FrequencyChange><Frequency dt:dt=""r8"">2929853</Frequency><Timestamp dt:dt=""r8"">46855815817</Timestamp><Current dt:dt=""r8"">0</Current><DateUtc dt:dt=""string"">2023-01-14T09:58:57Z</DateUtc></FrequencyChange></FrequencyChanges></Clock>\n",Wisconsin-1175-3,59.957,1.0.0.559,1,-388253323,2.0.10.356,2.0.10.356,01-14-2023,1/14/2023 9:58:57 AM,17:58:57,2.0.10.252,3,,,,1.0,1.0,2.0,BlockProc,List3,3,,,,,,,,,,,,,,,,,2.0,1.0,3.0,,,,,,,NumberProc,List2,,,,,,,,,2.0,Button1.png,Button2.png,Button3.png,Button4.png,Redstar2.png,,,,,,,z,1.0,7.0,1.0,2.0,,,,0.0,TrialProc,NumberList,,,,,,,0.0,z,1.0,0.0,464055.0,0.0,v,6831.0,number
Wisconsin,1175,3,"<?xml version=""1.0""?>\n<Clock xmlns:dt=""urn:schemas-microsoft-com:datatypes""><Description dt:dt=""string"">E-Prime Primary Realtime Clock</Description><StartTime><Timestamp dt:dt=""int"">0</Timestamp><DateUtc dt:dt=""string"">2023-01-14T09:58:57Z</DateUtc></StartTime><FrequencyChanges><FrequencyChange><Frequency dt:dt=""r8"">2929853</Frequency><Timestamp dt:dt=""r8"">46855815817</Timestamp><Current dt:dt=""r8"">0</Current><DateUtc dt:dt=""string"">2023-01-14T09:58:57Z</DateUtc></FrequencyChange></FrequencyChanges></Clock>\n",Wisconsin-1175-3,59.957,1.0.0.559,1,-388253323,2.0.10.356,2.0.10.356,01-14-2023,1/14/2023 9:58:57 AM,17:58:57,2.0.10.252,3,,,,1.0,1.0,2.0,BlockProc,List3,3,,,,,,,,,,,,,,,,,2.0,1.0,3.0,,,,,,,NumberProc,List2,,,,,,,,,3.0,Button1.png,Button2.png,Button3.png,Button4.png,Bluetriangle1.png,,,,,,,v,1.0,3.0,1.0,3.0,,,,0.0,TrialProc,NumberList,,,,,,,0.0,v,0.0,1.0,473429.0,0.0,z,6688.0,number
Wisconsin,1175,3,"<?xml version=""1.0""?>\n<Clock xmlns:dt=""urn:schemas-microsoft-com:datatypes""><Description dt:dt=""string"">E-Prime Primary Realtime Clock</Description><StartTime><Timestamp dt:dt=""int"">0</Timestamp><DateUtc dt:dt=""string"">2023-01-14T09:58:57Z</DateUtc></StartTime><FrequencyChanges><FrequencyChange><Frequency dt:dt=""r8"">2929853</Frequency><Timestamp dt:dt=""r8"">46855815817</Timestamp><Current dt:dt=""r8"">0</Current><DateUtc dt:dt=""string"">2023-01-14T09:58:57Z</DateUtc></FrequencyChange></FrequencyChanges></Clock>\n",Wisconsin-1175-3,59.957,1.0.0.559,1,-388253323,2.0.10.356,2.0.10.356,01-14-2023,1/14/2023 9:58:57 AM,17:58:57,2.0.10.252,3,,,,1.0,1.0,2.0,BlockProc,List3,3,,,,,,,,,,,,,,,,,2.0,1.0,3.0,,,,,,,NumberProc,List2,,,,,,,,,4.0,Button1.png,Button2.png,Button3.png,Button4.png,Bluecircle4.png,,,,,,,x,1.0,1.0,1.0,4.0,,,,0.0,TrialProc,NumberList,,,,,,,0.0,x,0.0,1.0,482652.0,0.0,v,2281.0,number
Wisconsin,1175,3,"<?xml version=""1.0""?>\n<Clock xmlns:dt=""urn:schemas-microsoft-com:datatypes""><Description dt:dt=""string"">E-Prime Primary Realtime Clock</Description><StartTime><Timestamp dt:dt=""int"">0</Timestamp><DateUtc dt:dt=""string"">2023-01-14T09:58:57Z</DateUtc></StartTime><FrequencyChanges><FrequencyChange><Frequency dt:dt=""r8"">2929853</Frequency><Timestamp dt:dt=""r8"">46855815817</Timestamp><Current dt:dt=""r8"">0</Current><DateUtc dt:dt=""string"">2023-01-14T09:58:57Z</DateUtc></FrequencyChange></FrequencyChanges></Clock>\n",Wisconsin-1175-3,59.957,1.0.0.559,1,-388253323,2.0.10.356,2.0.10.356,01-14-2023,1/14/2023 9:58:57 AM,17:58:57,2.0.10.252,3,,,,1.0,1.0,2.0,BlockProc,List3,3,,,,,,,,,,,,,,,,,2.0,1.0,3.0,,,,,,,NumberProc,List2,,,,,,,,,5.0,Button1.png,Button2.png,Button3.png,Button4.png,Greencircle4.png,,,,,,,x,1.0,4.0,1.0,5.0,,,,0.0,TrialProc,NumberList,,,,,,,0.0,x,0.0,0.0,487472.0,0.0,v,1909.0,number
Wisconsin,1175,3,"<?xml version=""1.0""?>\n<Clock xmlns:dt=""urn:schemas-microsoft-com:datatypes""><Description dt:dt=""string"">E-Prime Primary Realtime Clock</Description><StartTime><Timestamp dt:dt=""int"">0</Timestamp><DateUtc dt:dt=""string"">2023-01-14T09:58:57Z</DateUtc></StartTime><FrequencyChanges><FrequencyChange><Frequency dt:dt=""r8"">2929853</Frequency><Timestamp dt:dt=""r8"">46855815817</Timestamp><Current dt:dt=""r8"">0</Current><DateUtc dt:dt=""string"">2023-01-14T09:58:57Z</DateUtc></FrequencyChange></FrequencyChanges></Clock>\n",Wisconsin-1175-3,59.957,1.0.0.559,1,-388253323,2.0.10.356,2.0.10.356,01-14-2023,1/14/2023 9:58:57 AM,17:58:57,2.0.10.252,3,,,,1.0,1.0,2.0,BlockProc,List3,3,,,,,,,,,,,,,,,,,2.0,1.0,3.0,,,,,,,NumberProc,List2,,,,,,,,,6.0,Button1.png,Button2.png,Button3.png,Button4.png,Redcircle4.png,,,,,,,x,1.0,6.0,1.0,6.0,,,,0.0,TrialProc,NumberList,,,,,,,0.0,x,0.0,1.0,491926.0,0.0,v,3086.0,number
Wisconsin,1175,3,"<?xml version=""1.0""?>\n<Clock xmlns:dt=""urn:schemas-microsoft-com:datatypes""><Description dt:dt=""string"">E-Prime Primary Realtime Clock</Description><StartTime><Timestamp dt:dt=""int"">0</Timestamp><DateUtc dt:dt=""string"">2023-01-14T09:58:57Z</DateUtc></StartTime><FrequencyChanges><FrequencyChange><Frequency dt:dt=""r8"">2929853</Frequency><Timestamp dt:dt=""r8"">46855815817</Timestamp><Current dt:dt=""r8"">0</Current><DateUtc dt:dt=""string"">2023-01-14T09:58:57Z</DateUtc></FrequencyChange></FrequencyChanges></Clock>\n",Wisconsin-1175-3,59.957,1.0.0.559,1,-388253323,2.0.10.356,2.0.10.356,01-14-2023,1/14/2023 9:58:57 AM,17:58:57,2.0.10.252,3,,,,1.0,1.0,2.0,BlockProc,List3,3,,,,,,,,,,,,,,,,,2.0,1.0,3.0,,,,,,,NumberProc,List2,,,,,,,,,7.0,Button1.png,Button2.png,Button3.png,Button4.png,Redtriangle4.png,,,,,,,x,1.0,8.0,1.0,7.0,,,,0.0,TrialProc,NumberList,,,,,,,0.0,x,0.0,0.0,497546.0,0.0,v,3770.0,number
Wisconsin,1175,3,"<?xml version=""1.0""?>\n<Clock xmlns:dt=""urn:schemas-microsoft-com:datatypes""><Description dt:dt=""string"">E-Prime Primary Realtime Clock</Description><StartTime><Timestamp dt:dt=""int"">0</Timestamp><DateUtc dt:dt=""string"">2023-01-14T09:58:57Z</DateUtc></StartTime><FrequencyChanges><FrequencyChange><Frequency dt:dt=""r8"">2929853</Frequency><Timestamp dt:dt=""r8"">46855815817</Timestamp><Current dt:dt=""r8"">0</Current><DateUtc dt:dt=""string"">2023-01-14T09:58:57Z</DateUtc></FrequencyChange></FrequencyChanges></Clock>\n",Wisconsin-1175-3,59.957,1.0.0.559,1,-388253323,2.0.10.356,2.0.10.356,01-14-2023,1/14/2023 9:58:57 AM,17:58:57,2.0.10.252,3,,,,1.0,1.0,2.0,BlockProc,List3,3,,,,,,,,,,,,,,,,,2.0,1.0,3.0,,,,,,,NumberProc,List2,,,,,,,,,8.0,Button1.png,Button2.png,Button3.png,Button4.png,Yellowcross3.png,,,,,,,c,0.0,10.0,1.0,8.0,,,,0.0,TrialProc,NumberList,,,,,,,1.0,c,0.0,1.0,503851.0,0.0,c,2281.0,number
Wisconsin,1175,3,"<?xml version=""1.0""?>\n<Clock xmlns:dt=""urn:schemas-microsoft-com:datatypes""><Description dt:dt=""string"">E-Prime Primary Realtime Clock</Description><StartTime><Timestamp dt:dt=""int"">0</Timestamp><DateUtc dt:dt=""string"">2023-01-14T09:58:57Z</DateUtc></StartTime><FrequencyChanges><FrequencyChange><Frequency dt:dt=""r8"">2929853</Frequency><Timestamp dt:dt=""r8"">46855815817</Timestamp><Current dt:dt=""r8"">0</Current><DateUtc dt:dt=""string"">2023-01-14T09:58:57Z</DateUtc></FrequencyChange></FrequencyChanges></Clock>\n",Wisconsin-1175-3,59.957,1.0.0.559,1,-388253323,2.0.10.356,2.0.10.356,01-14-2023,1/14/2023 9:58:57 AM,17:58:57,2.0.10.252,3,,,,1.0,1.0,2.0,BlockProc,List3,3,,,,,,,,,,,,,,,,,2.0,1.0,3.0,,,,,,,NumberProc,List2,,,,,,,,,9.0,Button1.png,Button2.png,Button3.png,Button4.png,Bluestar2.png,,,,,,,z,1.0,2.0,1.0,9.0,,,,0.0,TrialProc,NumberList,,,,,,,0.0,z,0.0,1.0,508671.0,0.0,x,1908.0,number
Wisconsin,1175,3,"<?xml version=""1.0""?>\n<Clock xmlns:dt=""urn:schemas-microsoft-com:datatypes""><Description dt:dt=""string"">E-Prime Primary Realtime Clock</Description><StartTime><Timestamp dt:dt=""int"">0</Timestamp><DateUtc dt:dt=""string"">2023-01-14T09:58:57Z</DateUtc></StartTime><FrequencyChanges><FrequencyChange><Frequency dt:dt=""r8"">2929853</Frequency><Timestamp dt:dt=""r8"">46855815817</Timestamp><Current dt:dt=""r8"">0</Current><DateUtc dt:dt=""string"">2023-01-14T09:58:57Z</DateUtc></FrequencyChange></FrequencyChanges></Clock>\n",Wisconsin-1175-3,59.957,1.0.0.559,1,-388253323,2.0.10.356,2.0.10.356,01-14-2023,1/14/2023 9:58:57 AM,17:58:57,2.0.10.252,3,,,,1.0,1.0,2.0,BlockProc,List3,3,,,,,,,,,,,,,,,,,2.0,1.0,3.0,,,,,,,NumberProc,List2,,,,,,,,,10.0,Button1.png,Button2.png,Button3.png,Button4.png,Greencross3.png,,,,,,,c,0.0,5.0,1.0,10.0,,,,0.0,TrialProc,NumberList,,,,,,,1.0,c,0.0,1.0,513108.0,0.0,c,4511.0,number
