ExperimentName,Subject,Session,Clock.Information,DataFile.Basename,Display.RefreshRate,ExperimentVersion,Group,RandomSeed,RuntimeVersion,RuntimeVersionExpected,SessionDate,SessionStartDateTimeUtc,SessionTime,StudioVersion,Block,List1,List1.Cycle,List1.Sample,List3,List3.Cycle,List3.Sample,Procedure[Block],Running[Block],Trial,CardIMG1[Trial],CardIMG2[Trial],CardIMG3[Trial],CardIMG4[Trial],CardStim[Trial],Category,CorrectAnswer[Trial],FeedbackDisplay2.ACC,FeedbackDisplay2.CRESP,FeedbackDisplay2.DurationError,FeedbackDisplay2.OnsetDelay,FeedbackDisplay2.OnsetTime,FeedbackDisplay2.OnsetToOnsetTime,FeedbackDisplay2.RESP,FeedbackDisplay2.RT,FeedbackDisplay2.RTTime,List2,List2.Cycle,List2.Sample,List4,List4.Cycle,List4.Sample,PracticeList,PracticeList.Cycle,PracticeList.Sample,Procedure[Trial],Running[Trial],Slide5.ACC,Slide5.CRESP,Slide5.DurationError,Slide5.OnsetDelay,Slide5.OnsetTime,Slide5.OnsetToOnsetTime,Slide5.RESP,Slide5.RT,SubTrial,CardIMG1[SubTrial],CardIMG2[SubTrial],CardIMG3[SubTrial],CardIMG4[SubTrial],CardStim[SubTrial],ColorList,ColorList.Cycle,ColorList.Sample,ColorList2,ColorList2.Cycle,ColorList2.Sample,CorrectAnswer[SubTrial],NonPerseverativeError,NumberList,NumberList.Cycle,NumberList.Sample,NumberList1,NumberList1.Cycle,NumberList1.Sample,PerseverativeError,Procedure[SubTrial],Running[SubTrial],ShapeList,ShapeList.Cycle,ShapeList.Sample,ShapeList1,ShapeList1.Cycle,ShapeList1.Sample,Stimulus.ACC,Stimulus.CRESP,Stimulus.DurationError,Stimulus.OnsetDelay,Stimulus.OnsetTime,Stimulus.OnsetToOnsetTime,Stimulus.RESP,Stimulus.RT,TrialType
Wisconsin,1176,2,"<?xml version=""1.0""?>\n<Clock xmlns:dt=""urn:schemas-microsoft-com:datatypes""><Description dt:dt=""string"">E-Prime Primary Realtime Clock</Description><StartTime><Timestamp dt:dt=""int"">0</Timestamp><DateUtc dt:dt=""string"">2023-01-20T01:39:02Z</DateUtc></StartTime><FrequencyChanges><FrequencyChange><Frequency dt:dt=""r8"">2929814</Frequency><Timestamp dt:dt=""r8"">16248123046</Timestamp><Current dt:dt=""r8"">0</Current><DateUtc dt:dt=""string"">2023-01-20T01:39:02Z</DateUtc></FrequencyChange></FrequencyChanges></Clock>\n",Wisconsin-1176-2,59.957,1.0.0.560,1,-931173302,2.0.10.356,2.0.10.356,01-20-2023,1/20/2023 1:39:02 AM,09:39:02,2.0.10.252,1,1.0,1.0,1.0,,,,Practicebloc,List1,1,Button1.png,Button2.png,Button3.png,Button4.png,Greencircle3.png,顏色,z,0.0,,0.0,31.0,63978.0,0.0,,0.0,0.0,,,,,,,1.0,1.0,1.0,PracticeTrialProc,PracticeList,1.0,z,0.0,1.0,62227.0,0.0,z,1717.0,,,,,,,,,,,,,,,,,,,,,,,,,,,,,,,,,,,,,,
Wisconsin,1176,2,"<?xml version=""1.0""?>\n<Clock xmlns:dt=""urn:schemas-microsoft-com:datatypes""><Description dt:dt=""string"">E-Prime Primary Realtime Clock</Description><StartTime><Timestamp dt:dt=""int"">0</Timestamp><DateUtc dt:dt=""string"">2023-01-20T01:39:02Z</DateUtc></StartTime><FrequencyChanges><FrequencyChange><Frequency dt:dt=""r8"">2929814</Frequency><Timestamp dt:dt=""r8"">16248123046</Timestamp><Current dt:dt=""r8"">0</Current><DateUtc dt:dt=""string"">2023-01-20T01:39:02Z</DateUtc></FrequencyChange></FrequencyChanges></Clock>\n",Wisconsin-1176-2,59.957,1.0.0.560,1,-931173302,2.0.10.356,2.0.10.356,01-20-2023,1/20/2023 1:39:02 AM,09:39:02,2.0.10.252,1,1.0,1.0,1.0,,,,Practicebloc,List1,2,Button1.png,Button2.png,Button3.png,Button4.png,Redstar2.png,顏色,c,0.0,,0.0,24.0,67648.0,0.0,,0.0,0.0,,,,,,,2.0,1.0,2.0,PracticeTrialProc,PracticeList,1.0,c,0.0,1.0,66530.0,0.0,c,1094.0,,,,,,,,,,,,,,,,,,,,,,,,,,,,,,,,,,,,,,
Wisconsin,1176,2,"<?xml version=""1.0""?>\n<Clock xmlns:dt=""urn:schemas-microsoft-com:datatypes""><Description dt:dt=""string"">E-Prime Primary Realtime Clock</Description><StartTime><Timestamp dt:dt=""int"">0</Timestamp><DateUtc dt:dt=""string"">2023-01-20T01:39:02Z</DateUtc></StartTime><FrequencyChanges><FrequencyChange><Frequency dt:dt=""r8"">2929814</Frequency><Timestamp dt:dt=""r8"">16248123046</Timestamp><Current dt:dt=""r8"">0</Current><DateUtc dt:dt=""string"">2023-01-20T01:39:02Z</DateUtc></FrequencyChange></FrequencyChanges></Clock>\n",Wisconsin-1176-2,59.957,1.0.0.560,1,-931173302,2.0.10.356,2.0.10.356,01-20-2023,1/20/2023 1:39:02 AM,09:39:02,2.0.10.252,1,1.0,1.0,1.0,,,,Practicebloc,List1,3,Button1.png,Button2.png,Button3.png,Button4.png,Bluetriangle1.png,形狀,x,0.0,,0.0,20.0,71134.0,0.0,,0.0,0.0,,,,,,,3.0,1.0,3.0,PracticeTrialProc,PracticeList,1.0,x,1.0,0.0,70199.0,0.0,x,913.0,,,,,,,,,,,,,,,,,,,,,,,,,,,,,,,,,,,,,,
Wisconsin,1176,2,"<?xml version=""1.0""?>\n<Clock xmlns:dt=""urn:schemas-microsoft-com:datatypes""><Description dt:dt=""string"">E-Prime Primary Realtime Clock</Description><StartTime><Timestamp dt:dt=""int"">0</Timestamp><DateUtc dt:dt=""string"">2023-01-20T01:39:02Z</DateUtc></StartTime><FrequencyChanges><FrequencyChange><Frequency dt:dt=""r8"">2929814</Frequency><Timestamp dt:dt=""r8"">16248123046</Timestamp><Current dt:dt=""r8"">0</Current><DateUtc dt:dt=""string"">2023-01-20T01:39:02Z</DateUtc></FrequencyChange></FrequencyChanges></Clock>\n",Wisconsin-1176-2,59.957,1.0.0.560,1,-931173302,2.0.10.356,2.0.10.356,01-20-2023,1/20/2023 1:39:02 AM,09:39:02,2.0.10.252,1,1.0,1.0,1.0,,,,Practicebloc,List1,4,Button1.png,Button2.png,Button3.png,Button4.png,greenstar2.png,形狀,v,0.0,,0.0,22.0,75553.0,0.0,,0.0,0.0,,,,,,,4.0,1.0,4.0,PracticeTrialProc,PracticeList,1.0,v,0.0,0.0,73685.0,0.0,v,1843.0,,,,,,,,,,,,,,,,,,,,,,,,,,,,,,,,,,,,,,
Wisconsin,1176,2,"<?xml version=""1.0""?>\n<Clock xmlns:dt=""urn:schemas-microsoft-com:datatypes""><Description dt:dt=""string"">E-Prime Primary Realtime Clock</Description><StartTime><Timestamp dt:dt=""int"">0</Timestamp><DateUtc dt:dt=""string"">2023-01-20T01:39:02Z</DateUtc></StartTime><FrequencyChanges><FrequencyChange><Frequency dt:dt=""r8"">2929814</Frequency><Timestamp dt:dt=""r8"">16248123046</Timestamp><Current dt:dt=""r8"">0</Current><DateUtc dt:dt=""string"">2023-01-20T01:39:02Z</DateUtc></FrequencyChange></FrequencyChanges></Clock>\n",Wisconsin-1176-2,59.957,1.0.0.560,1,-931173302,2.0.10.356,2.0.10.356,01-20-2023,1/20/2023 1:39:02 AM,09:39:02,2.0.10.252,1,1.0,1.0,1.0,,,,Practicebloc,List1,5,Button1.png,Button2.png,Button3.png,Button4.png,BlueCross4.png,數目,x,0.0,,0.0,12.0,80407.0,0.0,,0.0,0.0,,,,,,,5.0,1.0,5.0,PracticeTrialProc,PracticeList,0.0,x,0.0,0.0,78105.0,0.0,c,2286.0,,,,,,,,,,,,,,,,,,,,,,,,,,,,,,,,,,,,,,
Wisconsin,1176,2,"<?xml version=""1.0""?>\n<Clock xmlns:dt=""urn:schemas-microsoft-com:datatypes""><Description dt:dt=""string"">E-Prime Primary Realtime Clock</Description><StartTime><Timestamp dt:dt=""int"">0</Timestamp><DateUtc dt:dt=""string"">2023-01-20T01:39:02Z</DateUtc></StartTime><FrequencyChanges><FrequencyChange><Frequency dt:dt=""r8"">2929814</Frequency><Timestamp dt:dt=""r8"">16248123046</Timestamp><Current dt:dt=""r8"">0</Current><DateUtc dt:dt=""string"">2023-01-20T01:39:02Z</DateUtc></FrequencyChange></FrequencyChanges></Clock>\n",Wisconsin-1176-2,59.957,1.0.0.560,1,-931173302,2.0.10.356,2.0.10.356,01-20-2023,1/20/2023 1:39:02 AM,09:39:02,2.0.10.252,1,1.0,1.0,1.0,,,,Practicebloc,List1,6,Button1.png,Button2.png,Button3.png,Button4.png,yellowcircle2.png,數目,z,0.0,,0.0,12.0,85461.0,0.0,,0.0,0.0,,,,,,,6.0,1.0,6.0,PracticeTrialProc,PracticeList,1.0,z,0.0,1.0,82959.0,0.0,z,2488.0,,,,,,,,,,,,,,,,,,,,,,,,,,,,,,,,,,,,,,
Wisconsin,1176,2,"<?xml version=""1.0""?>\n<Clock xmlns:dt=""urn:schemas-microsoft-com:datatypes""><Description dt:dt=""string"">E-Prime Primary Realtime Clock</Description><StartTime><Timestamp dt:dt=""int"">0</Timestamp><DateUtc dt:dt=""string"">2023-01-20T01:39:02Z</DateUtc></StartTime><FrequencyChanges><FrequencyChange><Frequency dt:dt=""r8"">2929814</Frequency><Timestamp dt:dt=""r8"">16248123046</Timestamp><Current dt:dt=""r8"">0</Current><DateUtc dt:dt=""string"">2023-01-20T01:39:02Z</DateUtc></FrequencyChange></FrequencyChanges></Clock>\n",Wisconsin-1176-2,59.957,1.0.0.560,1,-931173302,2.0.10.356,2.0.10.356,01-20-2023,1/20/2023 1:39:02 AM,09:39:02,2.0.10.252,2,,,,1.0,1.0,1.0,BlockProc,List3,1,,,,,,,,,,,,,,,,,3.0,1.0,1.0,,,,,,,ShapeProc,List2,,,,,,,,,1.0,Button1.png,Button2.png,Button3.png,Button4.png,Bluecircle2.png,,,,,,,z,0.0,,,,,,,0.0,TrialProc,ShapeList,1.0,1.0,1.0,,,,1.0,z,0.0,1.0,154679.0,0.0,z,1645.0,Shape
Wisconsin,1176,2,"<?xml version=""1.0""?>\n<Clock xmlns:dt=""urn:schemas-microsoft-com:datatypes""><Description dt:dt=""string"">E-Prime Primary Realtime Clock</Description><StartTime><Timestamp dt:dt=""int"">0</Timestamp><DateUtc dt:dt=""string"">2023-01-20T01:39:02Z</DateUtc></StartTime><FrequencyChanges><FrequencyChange><Frequency dt:dt=""r8"">2929814</Frequency><Timestamp dt:dt=""r8"">16248123046</Timestamp><Current dt:dt=""r8"">0</Current><DateUtc dt:dt=""string"">2023-01-20T01:39:02Z</DateUtc></FrequencyChange></FrequencyChanges></Clock>\n",Wisconsin-1176-2,59.957,1.0.0.560,1,-931173302,2.0.10.356,2.0.10.356,01-20-2023,1/20/2023 1:39:02 AM,09:39:02,2.0.10.252,2,,,,1.0,1.0,1.0,BlockProc,List3,1,,,,,,,,,,,,,,,,,3.0,1.0,1.0,,,,,,,ShapeProc,List2,,,,,,,,,2.0,Button1.png,Button2.png,Button3.png,Button4.png,Yellowstar4.png,,,,,,,v,1.0,,,,,,,0.0,TrialProc,ShapeList,10.0,1.0,2.0,,,,0.0,v,0.0,1.0,158865.0,0.0,x,771.0,Shape
Wisconsin,1176,2,"<?xml version=""1.0""?>\n<Clock xmlns:dt=""urn:schemas-microsoft-com:datatypes""><Description dt:dt=""string"">E-Prime Primary Realtime Clock</Description><StartTime><Timestamp dt:dt=""int"">0</Timestamp><DateUtc dt:dt=""string"">2023-01-20T01:39:02Z</DateUtc></StartTime><FrequencyChanges><FrequencyChange><Frequency dt:dt=""r8"">2929814</Frequency><Timestamp dt:dt=""r8"">16248123046</Timestamp><Current dt:dt=""r8"">0</Current><DateUtc dt:dt=""string"">2023-01-20T01:39:02Z</DateUtc></FrequencyChange></FrequencyChanges></Clock>\n",Wisconsin-1176-2,59.957,1.0.0.560,1,-931173302,2.0.10.356,2.0.10.356,01-20-2023,1/20/2023 1:39:02 AM,09:39:02,2.0.10.252,2,,,,1.0,1.0,1.0,BlockProc,List3,1,,,,,,,,,,,,,,,,,3.0,1.0,1.0,,,,,,,ShapeProc,List2,,,,,,,,,3.0,Button1.png,Button2.png,Button3.png,Button4.png,Bluecross4.png,,,,,,,c,0.0,,,,,,,0.0,TrialProc,ShapeList,2.0,1.0,3.0,,,,1.0,c,0.0,1.0,162168.0,0.0,c,1260.0,Shape
Wisconsin,1176,2,"<?xml version=""1.0""?>\n<Clock xmlns:dt=""urn:schemas-microsoft-com:datatypes""><Description dt:dt=""string"">E-Prime Primary Realtime Clock</Description><StartTime><Timestamp dt:dt=""int"">0</Timestamp><DateUtc dt:dt=""string"">2023-01-20T01:39:02Z</DateUtc></StartTime><FrequencyChanges><FrequencyChange><Frequency dt:dt=""r8"">2929814</Frequency><Timestamp dt:dt=""r8"">16248123046</Timestamp><Current dt:dt=""r8"">0</Current><DateUtc dt:dt=""string"">2023-01-20T01:39:02Z</DateUtc></FrequencyChange></FrequencyChanges></Clock>\n",Wisconsin-1176-2,59.957,1.0.0.560,1,-931173302,2.0.10.356,2.0.10.356,01-20-2023,1/20/2023 1:39:02 AM,09:39:02,2.0.10.252,2,,,,1.0,1.0,1.0,BlockProc,List3,1,,,,,,,,,,,,,,,,,3.0,1.0,1.0,,,,,,,ShapeProc,List2,,,,,,,,,4.0,Button1.png,Button2.png,Button3.png,Button4.png,Redtriangle1.png,,,,,,,x,0.0,,,,,,,0.0,TrialProc,ShapeList,7.0,1.0,4.0,,,,1.0,x,0.0,0.0,165970.0,0.0,x,882.0,Shape
Wisconsin,1176,2,"<?xml version=""1.0""?>\n<Clock xmlns:dt=""urn:schemas-microsoft-com:datatypes""><Description dt:dt=""string"">E-Prime Primary Realtime Clock</Description><StartTime><Timestamp dt:dt=""int"">0</Timestamp><DateUtc dt:dt=""string"">2023-01-20T01:39:02Z</DateUtc></StartTime><FrequencyChanges><FrequencyChange><Frequency dt:dt=""r8"">2929814</Frequency><Timestamp dt:dt=""r8"">16248123046</Timestamp><Current dt:dt=""r8"">0</Current><DateUtc dt:dt=""string"">2023-01-20T01:39:02Z</DateUtc></FrequencyChange></FrequencyChanges></Clock>\n",Wisconsin-1176-2,59.957,1.0.0.560,1,-931173302,2.0.10.356,2.0.10.356,01-20-2023,1/20/2023 1:39:02 AM,09:39:02,2.0.10.252,2,,,,1.0,1.0,1.0,BlockProc,List3,1,,,,,,,,,,,,,,,,,3.0,1.0,1.0,,,,,,,ShapeProc,List2,,,,,,,,,5.0,Button1.png,Button2.png,Button3.png,Button4.png,Redcross4.png,,,,,,,c,0.0,,,,,,,0.0,TrialProc,ShapeList,6.0,1.0,5.0,,,,1.0,c,0.0,1.0,169390.0,0.0,c,757.0,Shape
Wisconsin,1176,2,"<?xml version=""1.0""?>\n<Clock xmlns:dt=""urn:schemas-microsoft-com:datatypes""><Description dt:dt=""string"">E-Prime Primary Realtime Clock</Description><StartTime><Timestamp dt:dt=""int"">0</Timestamp><DateUtc dt:dt=""string"">2023-01-20T01:39:02Z</DateUtc></StartTime><FrequencyChanges><FrequencyChange><Frequency dt:dt=""r8"">2929814</Frequency><Timestamp dt:dt=""r8"">16248123046</Timestamp><Current dt:dt=""r8"">0</Current><DateUtc dt:dt=""string"">2023-01-20T01:39:02Z</DateUtc></FrequencyChange></FrequencyChanges></Clock>\n",Wisconsin-1176-2,59.957,1.0.0.560,1,-931173302,2.0.10.356,2.0.10.356,01-20-2023,1/20/2023 1:39:02 AM,09:39:02,2.0.10.252,2,,,,1.0,1.0,1.0,BlockProc,List3,1,,,,,,,,,,,,,,,,,3.0,1.0,1.0,,,,,,,ShapeProc,List2,,,,,,,,,6.0,Button1.png,Button2.png,Button3.png,Button4.png,Greentriangle4.png,,,,,,,x,0.0,,,,,,,0.0,TrialProc,ShapeList,4.0,1.0,6.0,,,,1.0,x,0.0,1.0,172692.0,0.0,x,719.0,Shape
Wisconsin,1176,2,"<?xml version=""1.0""?>\n<Clock xmlns:dt=""urn:schemas-microsoft-com:datatypes""><Description dt:dt=""string"">E-Prime Primary Realtime Clock</Description><StartTime><Timestamp dt:dt=""int"">0</Timestamp><DateUtc dt:dt=""string"">2023-01-20T01:39:02Z</DateUtc></StartTime><FrequencyChanges><FrequencyChange><Frequency dt:dt=""r8"">2929814</Frequency><Timestamp dt:dt=""r8"">16248123046</Timestamp><Current dt:dt=""r8"">0</Current><DateUtc dt:dt=""string"">2023-01-20T01:39:02Z</DateUtc></FrequencyChange></FrequencyChanges></Clock>\n",Wisconsin-1176-2,59.957,1.0.0.560,1,-931173302,2.0.10.356,2.0.10.356,01-20-2023,1/20/2023 1:39:02 AM,09:39:02,2.0.10.252,2,,,,1.0,1.0,1.0,BlockProc,List3,1,,,,,,,,,,,,,,,,,3.0,1.0,1.0,,,,,,,ShapeProc,List2,,,,,,,,,7.0,Button1.png,Button2.png,Button3.png,Button4.png,yellowcircle3.png,,,,,,,z,0.0,,,,,,,0.0,TrialProc,ShapeList,8.0,1.0,7.0,,,,1.0,z,1.0,0.0,175944.0,0.0,z,843.0,Shape
Wisconsin,1176,2,"<?xml version=""1.0""?>\n<Clock xmlns:dt=""urn:schemas-microsoft-com:datatypes""><Description dt:dt=""string"">E-Prime Primary Realtime Clock</Description><StartTime><Timestamp dt:dt=""int"">0</Timestamp><DateUtc dt:dt=""string"">2023-01-20T01:39:02Z</DateUtc></StartTime><FrequencyChanges><FrequencyChange><Frequency dt:dt=""r8"">2929814</Frequency><Timestamp dt:dt=""r8"">16248123046</Timestamp><Current dt:dt=""r8"">0</Current><DateUtc dt:dt=""string"">2023-01-20T01:39:02Z</DateUtc></FrequencyChange></FrequencyChanges></Clock>\n",Wisconsin-1176-2,59.957,1.0.0.560,1,-931173302,2.0.10.356,2.0.10.356,01-20-2023,1/20/2023 1:39:02 AM,09:39:02,2.0.10.252,2,,,,1.0,1.0,1.0,BlockProc,List3,1,,,,,,,,,,,,,,,,,3.0,1.0,1.0,,,,,,,ShapeProc,List2,,,,,,,,,8.0,Button1.png,Button2.png,Button3.png,Button4.png,Greencross1.png,,,,,,,c,0.0,,,,,,,0.0,TrialProc,ShapeList,3.0,1.0,8.0,,,,1.0,c,0.0,0.0,179330.0,0.0,c,721.0,Shape
Wisconsin,1176,2,"<?xml version=""1.0""?>\n<Clock xmlns:dt=""urn:schemas-microsoft-com:datatypes""><Description dt:dt=""string"">E-Prime Primary Realtime Clock</Description><StartTime><Timestamp dt:dt=""int"">0</Timestamp><DateUtc dt:dt=""string"">2023-01-20T01:39:02Z</DateUtc></StartTime><FrequencyChanges><FrequencyChange><Frequency dt:dt=""r8"">2929814</Frequency><Timestamp dt:dt=""r8"">16248123046</Timestamp><Current dt:dt=""r8"">0</Current><DateUtc dt:dt=""string"">2023-01-20T01:39:02Z</DateUtc></FrequencyChange></FrequencyChanges></Clock>\n",Wisconsin-1176-2,59.957,1.0.0.560,1,-931173302,2.0.10.356,2.0.10.356,01-20-2023,1/20/2023 1:39:02 AM,09:39:02,2.0.10.252,2,,,,1.0,1.0,1.0,BlockProc,List3,1,,,,,,,,,,,,,,,,,3.0,1.0,1.0,,,,,,,ShapeProc,List2,,,,,,,,,9.0,Button1.png,Button2.png,Button3.png,Button4.png,Yellowstar1.png,,,,,,,v,0.0,,,,,,,0.0,TrialProc,ShapeList,9.0,1.0,9.0,,,,1.0,v,0.0,1.0,182583.0,0.0,v,988.0,Shape
Wisconsin,1176,2,"<?xml version=""1.0""?>\n<Clock xmlns:dt=""urn:schemas-microsoft-com:datatypes""><Description dt:dt=""string"">E-Prime Primary Realtime Clock</Description><StartTime><Timestamp dt:dt=""int"">0</Timestamp><DateUtc dt:dt=""string"">2023-01-20T01:39:02Z</DateUtc></StartTime><FrequencyChanges><FrequencyChange><Frequency dt:dt=""r8"">2929814</Frequency><Timestamp dt:dt=""r8"">16248123046</Timestamp><Current dt:dt=""r8"">0</Current><DateUtc dt:dt=""string"">2023-01-20T01:39:02Z</DateUtc></FrequencyChange></FrequencyChanges></Clock>\n",Wisconsin-1176-2,59.957,1.0.0.560,1,-931173302,2.0.10.356,2.0.10.356,01-20-2023,1/20/2023 1:39:02 AM,09:39:02,2.0.10.252,2,,,,1.0,1.0,1.0,BlockProc,List3,1,,,,,,,,,,,,,,,,,3.0,1.0,1.0,,,,,,,ShapeProc,List2,,,,,,,,,10.0,Button1.png,Button2.png,Button3.png,Button4.png,Redcross1.png,,,,,,,c,0.0,,,,,,,0.0,TrialProc,ShapeList,5.0,1.0,10.0,,,,1.0,c,0.0,1.0,186102.0,0.0,c,685.0,Shape
Wisconsin,1176,2,"<?xml version=""1.0""?>\n<Clock xmlns:dt=""urn:schemas-microsoft-com:datatypes""><Description dt:dt=""string"">E-Prime Primary Realtime Clock</Description><StartTime><Timestamp dt:dt=""int"">0</Timestamp><DateUtc dt:dt=""string"">2023-01-20T01:39:02Z</DateUtc></StartTime><FrequencyChanges><FrequencyChange><Frequency dt:dt=""r8"">2929814</Frequency><Timestamp dt:dt=""r8"">16248123046</Timestamp><Current dt:dt=""r8"">0</Current><DateUtc dt:dt=""string"">2023-01-20T01:39:02Z</DateUtc></FrequencyChange></FrequencyChanges></Clock>\n",Wisconsin-1176-2,59.957,1.0.0.560,1,-931173302,2.0.10.356,2.0.10.356,01-20-2023,1/20/2023 1:39:02 AM,09:39:02,2.0.10.252,2,,,,1.0,1.0,1.0,BlockProc,List3,2,,,,,,,,,,,,,,,,,1.0,1.0,2.0,,,,,,,ColorProc,List2,,,,,,,,,1.0,BUTTON1.png,BUTTON2.PNG,BUTTON3.png,BUTTON4.png,yellowstar3.png,10.0,1.0,1.0,,,,x,1.0,,,,,,,0.0,TrialProc,ColorList,,,,,,,0.0,x,0.0,1.0,189321.0,0.0,v,1002.0,color
Wisconsin,1176,2,"<?xml version=""1.0""?>\n<Clock xmlns:dt=""urn:schemas-microsoft-com:datatypes""><Description dt:dt=""string"">E-Prime Primary Realtime Clock</Description><StartTime><Timestamp dt:dt=""int"">0</Timestamp><DateUtc dt:dt=""string"">2023-01-20T01:39:02Z</DateUtc></StartTime><FrequencyChanges><FrequencyChange><Frequency dt:dt=""r8"">2929814</Frequency><Timestamp dt:dt=""r8"">16248123046</Timestamp><Current dt:dt=""r8"">0</Current><DateUtc dt:dt=""string"">2023-01-20T01:39:02Z</DateUtc></FrequencyChange></FrequencyChanges></Clock>\n",Wisconsin-1176-2,59.957,1.0.0.560,1,-931173302,2.0.10.356,2.0.10.356,01-20-2023,1/20/2023 1:39:02 AM,09:39:02,2.0.10.252,2,,,,1.0,1.0,1.0,BlockProc,List3,2,,,,,,,,,,,,,,,,,1.0,1.0,2.0,,,,,,,ColorProc,List2,,,,,,,,,2.0,BUTTON1.png,BUTTON2.PNG,BUTTON3.png,BUTTON4.png,greentriangle1.png,6.0,1.0,2.0,,,,z,1.0,,,,,,,0.0,TrialProc,ColorList,,,,,,,0.0,z,0.0,1.0,192857.0,0.0,v,1257.0,color
Wisconsin,1176,2,"<?xml version=""1.0""?>\n<Clock xmlns:dt=""urn:schemas-microsoft-com:datatypes""><Description dt:dt=""string"">E-Prime Primary Realtime Clock</Description><StartTime><Timestamp dt:dt=""int"">0</Timestamp><DateUtc dt:dt=""string"">2023-01-20T01:39:02Z</DateUtc></StartTime><FrequencyChanges><FrequencyChange><Frequency dt:dt=""r8"">2929814</Frequency><Timestamp dt:dt=""r8"">16248123046</Timestamp><Current dt:dt=""r8"">0</Current><DateUtc dt:dt=""string"">2023-01-20T01:39:02Z</DateUtc></FrequencyChange></FrequencyChanges></Clock>\n",Wisconsin-1176-2,59.957,1.0.0.560,1,-931173302,2.0.10.356,2.0.10.356,01-20-2023,1/20/2023 1:39:02 AM,09:39:02,2.0.10.252,2,,,,1.0,1.0,1.0,BlockProc,List3,2,,,,,,,,,,,,,,,,,1.0,1.0,2.0,,,,,,,ColorProc,List2,,,,,,,,,3.0,BUTTON1.png,BUTTON2.PNG,BUTTON3.png,BUTTON4.png,greencircle3.png,4.0,1.0,3.0,,,,z,0.0,,,,,,,0.0,TrialProc,ColorList,,,,,,,1.0,z,0.0,1.0,196643.0,0.0,z,1967.0,color
Wisconsin,1176,2,"<?xml version=""1.0""?>\n<Clock xmlns:dt=""urn:schemas-microsoft-com:datatypes""><Description dt:dt=""string"">E-Prime Primary Realtime Clock</Description><StartTime><Timestamp dt:dt=""int"">0</Timestamp><DateUtc dt:dt=""string"">2023-01-20T01:39:02Z</DateUtc></StartTime><FrequencyChanges><FrequencyChange><Frequency dt:dt=""r8"">2929814</Frequency><Timestamp dt:dt=""r8"">16248123046</Timestamp><Current dt:dt=""r8"">0</Current><DateUtc dt:dt=""string"">2023-01-20T01:39:02Z</DateUtc></FrequencyChange></FrequencyChanges></Clock>\n",Wisconsin-1176-2,59.957,1.0.0.560,1,-931173302,2.0.10.356,2.0.10.356,01-20-2023,1/20/2023 1:39:02 AM,09:39:02,2.0.10.252,2,,,,1.0,1.0,1.0,BlockProc,List3,2,,,,,,,,,,,,,,,,,1.0,1.0,2.0,,,,,,,ColorProc,List2,,,,,,,,,4.0,BUTTON1.png,BUTTON2.PNG,BUTTON3.png,BUTTON4.png,bluecircle1.png,1.0,1.0,4.0,,,,v,0.0,,,,,,,0.0,TrialProc,ColorList,,,,,,,1.0,v,1.0,0.0,201146.0,0.0,v,888.0,color
Wisconsin,1176,2,"<?xml version=""1.0""?>\n<Clock xmlns:dt=""urn:schemas-microsoft-com:datatypes""><Description dt:dt=""string"">E-Prime Primary Realtime Clock</Description><StartTime><Timestamp dt:dt=""int"">0</Timestamp><DateUtc dt:dt=""string"">2023-01-20T01:39:02Z</DateUtc></StartTime><FrequencyChanges><FrequencyChange><Frequency dt:dt=""r8"">2929814</Frequency><Timestamp dt:dt=""r8"">16248123046</Timestamp><Current dt:dt=""r8"">0</Current><DateUtc dt:dt=""string"">2023-01-20T01:39:02Z</DateUtc></FrequencyChange></FrequencyChanges></Clock>\n",Wisconsin-1176-2,59.957,1.0.0.560,1,-931173302,2.0.10.356,2.0.10.356,01-20-2023,1/20/2023 1:39:02 AM,09:39:02,2.0.10.252,2,,,,1.0,1.0,1.0,BlockProc,List3,2,,,,,,,,,,,,,,,,,1.0,1.0,2.0,,,,,,,ColorProc,List2,,,,,,,,,5.0,BUTTON1.png,BUTTON2.PNG,BUTTON3.png,BUTTON4.png,yellowcircle1.png,9.0,1.0,5.0,,,,x,0.0,,,,,,,0.0,TrialProc,ColorList,,,,,,,1.0,x,0.0,1.0,204566.0,0.0,x,732.0,color
Wisconsin,1176,2,"<?xml version=""1.0""?>\n<Clock xmlns:dt=""urn:schemas-microsoft-com:datatypes""><Description dt:dt=""string"">E-Prime Primary Realtime Clock</Description><StartTime><Timestamp dt:dt=""int"">0</Timestamp><DateUtc dt:dt=""string"">2023-01-20T01:39:02Z</DateUtc></StartTime><FrequencyChanges><FrequencyChange><Frequency dt:dt=""r8"">2929814</Frequency><Timestamp dt:dt=""r8"">16248123046</Timestamp><Current dt:dt=""r8"">0</Current><DateUtc dt:dt=""string"">2023-01-20T01:39:02Z</DateUtc></FrequencyChange></FrequencyChanges></Clock>\n",Wisconsin-1176-2,59.957,1.0.0.560,1,-931173302,2.0.10.356,2.0.10.356,01-20-2023,1/20/2023 1:39:02 AM,09:39:02,2.0.10.252,2,,,,1.0,1.0,1.0,BlockProc,List3,2,,,,,,,,,,,,,,,,,1.0,1.0,2.0,,,,,,,ColorProc,List2,,,,,,,,,6.0,BUTTON1.png,BUTTON2.PNG,BUTTON3.png,BUTTON4.png,bluecross2.png,2.0,1.0,6.0,,,,v,0.0,,,,,,,0.0,TrialProc,ColorList,,,,,,,1.0,v,0.0,1.0,207835.0,0.0,v,1559.0,color
Wisconsin,1176,2,"<?xml version=""1.0""?>\n<Clock xmlns:dt=""urn:schemas-microsoft-com:datatypes""><Description dt:dt=""string"">E-Prime Primary Realtime Clock</Description><StartTime><Timestamp dt:dt=""int"">0</Timestamp><DateUtc dt:dt=""string"">2023-01-20T01:39:02Z</DateUtc></StartTime><FrequencyChanges><FrequencyChange><Frequency dt:dt=""r8"">2929814</Frequency><Timestamp dt:dt=""r8"">16248123046</Timestamp><Current dt:dt=""r8"">0</Current><DateUtc dt:dt=""string"">2023-01-20T01:39:02Z</DateUtc></FrequencyChange></FrequencyChanges></Clock>\n",Wisconsin-1176-2,59.957,1.0.0.560,1,-931173302,2.0.10.356,2.0.10.356,01-20-2023,1/20/2023 1:39:02 AM,09:39:02,2.0.10.252,2,,,,1.0,1.0,1.0,BlockProc,List3,2,,,,,,,,,,,,,,,,,1.0,1.0,2.0,,,,,,,ColorProc,List2,,,,,,,,,7.0,BUTTON1.png,BUTTON2.PNG,BUTTON3.png,BUTTON4.png,redcircle3.png,8.0,1.0,7.0,,,,c,0.0,,,,,,,0.0,TrialProc,ColorList,,,,,,,1.0,c,0.0,1.0,211921.0,0.0,c,849.0,color
Wisconsin,1176,2,"<?xml version=""1.0""?>\n<Clock xmlns:dt=""urn:schemas-microsoft-com:datatypes""><Description dt:dt=""string"">E-Prime Primary Realtime Clock</Description><StartTime><Timestamp dt:dt=""int"">0</Timestamp><DateUtc dt:dt=""string"">2023-01-20T01:39:02Z</DateUtc></StartTime><FrequencyChanges><FrequencyChange><Frequency dt:dt=""r8"">2929814</Frequency><Timestamp dt:dt=""r8"">16248123046</Timestamp><Current dt:dt=""r8"">0</Current><DateUtc dt:dt=""string"">2023-01-20T01:39:02Z</DateUtc></FrequencyChange></FrequencyChanges></Clock>\n",Wisconsin-1176-2,59.957,1.0.0.560,1,-931173302,2.0.10.356,2.0.10.356,01-20-2023,1/20/2023 1:39:02 AM,09:39:02,2.0.10.252,2,,,,1.0,1.0,1.0,BlockProc,List3,2,,,,,,,,,,,,,,,,,1.0,1.0,2.0,,,,,,,ColorProc,List2,,,,,,,,,8.0,BUTTON1.png,BUTTON2.PNG,BUTTON3.png,BUTTON4.png,bluetriangle3.png,3.0,1.0,8.0,,,,v,0.0,,,,,,,0.0,TrialProc,ColorList,,,,,,,1.0,v,0.0,1.0,215307.0,0.0,v,822.0,color
Wisconsin,1176,2,"<?xml version=""1.0""?>\n<Clock xmlns:dt=""urn:schemas-microsoft-com:datatypes""><Description dt:dt=""string"">E-Prime Primary Realtime Clock</Description><StartTime><Timestamp dt:dt=""int"">0</Timestamp><DateUtc dt:dt=""string"">2023-01-20T01:39:02Z</DateUtc></StartTime><FrequencyChanges><FrequencyChange><Frequency dt:dt=""r8"">2929814</Frequency><Timestamp dt:dt=""r8"">16248123046</Timestamp><Current dt:dt=""r8"">0</Current><DateUtc dt:dt=""string"">2023-01-20T01:39:02Z</DateUtc></FrequencyChange></FrequencyChanges></Clock>\n",Wisconsin-1176-2,59.957,1.0.0.560,1,-931173302,2.0.10.356,2.0.10.356,01-20-2023,1/20/2023 1:39:02 AM,09:39:02,2.0.10.252,2,,,,1.0,1.0,1.0,BlockProc,List3,2,,,,,,,,,,,,,,,,,1.0,1.0,2.0,,,,,,,ColorProc,List2,,,,,,,,,9.0,BUTTON1.png,BUTTON2.PNG,BUTTON3.png,BUTTON4.png,greenstar2.png,5.0,1.0,9.0,,,,z,0.0,,,,,,,0.0,TrialProc,ColorList,,,,,,,1.0,z,1.0,0.0,218659.0,0.0,z,686.0,color
Wisconsin,1176,2,"<?xml version=""1.0""?>\n<Clock xmlns:dt=""urn:schemas-microsoft-com:datatypes""><Description dt:dt=""string"">E-Prime Primary Realtime Clock</Description><StartTime><Timestamp dt:dt=""int"">0</Timestamp><DateUtc dt:dt=""string"">2023-01-20T01:39:02Z</DateUtc></StartTime><FrequencyChanges><FrequencyChange><Frequency dt:dt=""r8"">2929814</Frequency><Timestamp dt:dt=""r8"">16248123046</Timestamp><Current dt:dt=""r8"">0</Current><DateUtc dt:dt=""string"">2023-01-20T01:39:02Z</DateUtc></FrequencyChange></FrequencyChanges></Clock>\n",Wisconsin-1176-2,59.957,1.0.0.560,1,-931173302,2.0.10.356,2.0.10.356,01-20-2023,1/20/2023 1:39:02 AM,09:39:02,2.0.10.252,2,,,,1.0,1.0,1.0,BlockProc,List3,2,,,,,,,,,,,,,,,,,1.0,1.0,2.0,,,,,,,ColorProc,List2,,,,,,,,,10.0,BUTTON1.png,BUTTON2.PNG,BUTTON3.png,BUTTON4.png,greentriangle3.png,7.0,1.0,10.0,,,,z,0.0,,,,,,,0.0,TrialProc,ColorList,,,,,,,1.0,z,0.0,1.0,221879.0,0.0,z,1162.0,color
Wisconsin,1176,2,"<?xml version=""1.0""?>\n<Clock xmlns:dt=""urn:schemas-microsoft-com:datatypes""><Description dt:dt=""string"">E-Prime Primary Realtime Clock</Description><StartTime><Timestamp dt:dt=""int"">0</Timestamp><DateUtc dt:dt=""string"">2023-01-20T01:39:02Z</DateUtc></StartTime><FrequencyChanges><FrequencyChange><Frequency dt:dt=""r8"">2929814</Frequency><Timestamp dt:dt=""r8"">16248123046</Timestamp><Current dt:dt=""r8"">0</Current><DateUtc dt:dt=""string"">2023-01-20T01:39:02Z</DateUtc></FrequencyChange></FrequencyChanges></Clock>\n",Wisconsin-1176-2,59.957,1.0.0.560,1,-931173302,2.0.10.356,2.0.10.356,01-20-2023,1/20/2023 1:39:02 AM,09:39:02,2.0.10.252,2,,,,1.0,1.0,1.0,BlockProc,List3,3,,,,,,,,,,,,,,,,,2.0,1.0,3.0,,,,,,,NumberProc,List2,,,,,,,,,1.0,Button1.png,Button2.png,Button3.png,Button4.png,Bluecircle4.png,,,,,,,x,1.0,1.0,1.0,1.0,,,,0.0,TrialProc,NumberList,,,,,,,0.0,x,0.0,1.0,225581.0,0.0,v,996.0,number
Wisconsin,1176,2,"<?xml version=""1.0""?>\n<Clock xmlns:dt=""urn:schemas-microsoft-com:datatypes""><Description dt:dt=""string"">E-Prime Primary Realtime Clock</Description><StartTime><Timestamp dt:dt=""int"">0</Timestamp><DateUtc dt:dt=""string"">2023-01-20T01:39:02Z</DateUtc></StartTime><FrequencyChanges><FrequencyChange><Frequency dt:dt=""r8"">2929814</Frequency><Timestamp dt:dt=""r8"">16248123046</Timestamp><Current dt:dt=""r8"">0</Current><DateUtc dt:dt=""string"">2023-01-20T01:39:02Z</DateUtc></FrequencyChange></FrequencyChanges></Clock>\n",Wisconsin-1176-2,59.957,1.0.0.560,1,-931173302,2.0.10.356,2.0.10.356,01-20-2023,1/20/2023 1:39:02 AM,09:39:02,2.0.10.252,2,,,,1.0,1.0,1.0,BlockProc,List3,3,,,,,,,,,,,,,,,,,2.0,1.0,3.0,,,,,,,NumberProc,List2,,,,,,,,,2.0,Button1.png,Button2.png,Button3.png,Button4.png,Bluestar2.png,,,,,,,z,0.0,2.0,1.0,2.0,,,,0.0,TrialProc,NumberList,,,,,,,1.0,z,0.0,1.0,229117.0,0.0,z,1876.0,number
Wisconsin,1176,2,"<?xml version=""1.0""?>\n<Clock xmlns:dt=""urn:schemas-microsoft-com:datatypes""><Description dt:dt=""string"">E-Prime Primary Realtime Clock</Description><StartTime><Timestamp dt:dt=""int"">0</Timestamp><DateUtc dt:dt=""string"">2023-01-20T01:39:02Z</DateUtc></StartTime><FrequencyChanges><FrequencyChange><Frequency dt:dt=""r8"">2929814</Frequency><Timestamp dt:dt=""r8"">16248123046</Timestamp><Current dt:dt=""r8"">0</Current><DateUtc dt:dt=""string"">2023-01-20T01:39:02Z</DateUtc></FrequencyChange></FrequencyChanges></Clock>\n",Wisconsin-1176-2,59.957,1.0.0.560,1,-931173302,2.0.10.356,2.0.10.356,01-20-2023,1/20/2023 1:39:02 AM,09:39:02,2.0.10.252,2,,,,1.0,1.0,1.0,BlockProc,List3,3,,,,,,,,,,,,,,,,,2.0,1.0,3.0,,,,,,,NumberProc,List2,,,,,,,,,3.0,Button1.png,Button2.png,Button3.png,Button4.png,Redcircle4.png,,,,,,,x,0.0,6.0,1.0,3.0,,,,0.0,TrialProc,NumberList,,,,,,,1.0,x,0.0,1.0,233537.0,0.0,x,1728.0,number
Wisconsin,1176,2,"<?xml version=""1.0""?>\n<Clock xmlns:dt=""urn:schemas-microsoft-com:datatypes""><Description dt:dt=""string"">E-Prime Primary Realtime Clock</Description><StartTime><Timestamp dt:dt=""int"">0</Timestamp><DateUtc dt:dt=""string"">2023-01-20T01:39:02Z</DateUtc></StartTime><FrequencyChanges><FrequencyChange><Frequency dt:dt=""r8"">2929814</Frequency><Timestamp dt:dt=""r8"">16248123046</Timestamp><Current dt:dt=""r8"">0</Current><DateUtc dt:dt=""string"">2023-01-20T01:39:02Z</DateUtc></FrequencyChange></FrequencyChanges></Clock>\n",Wisconsin-1176-2,59.957,1.0.0.560,1,-931173302,2.0.10.356,2.0.10.356,01-20-2023,1/20/2023 1:39:02 AM,09:39:02,2.0.10.252,2,,,,1.0,1.0,1.0,BlockProc,List3,3,,,,,,,,,,,,,,,,,2.0,1.0,3.0,,,,,,,NumberProc,List2,,,,,,,,,4.0,Button1.png,Button2.png,Button3.png,Button4.png,Greencircle4.png,,,,,,,x,0.0,4.0,1.0,4.0,,,,0.0,TrialProc,NumberList,,,,,,,1.0,x,0.0,1.0,237807.0,0.0,x,1489.0,number
Wisconsin,1176,2,"<?xml version=""1.0""?>\n<Clock xmlns:dt=""urn:schemas-microsoft-com:datatypes""><Description dt:dt=""string"">E-Prime Primary Realtime Clock</Description><StartTime><Timestamp dt:dt=""int"">0</Timestamp><DateUtc dt:dt=""string"">2023-01-20T01:39:02Z</DateUtc></StartTime><FrequencyChanges><FrequencyChange><Frequency dt:dt=""r8"">2929814</Frequency><Timestamp dt:dt=""r8"">16248123046</Timestamp><Current dt:dt=""r8"">0</Current><DateUtc dt:dt=""string"">2023-01-20T01:39:02Z</DateUtc></FrequencyChange></FrequencyChanges></Clock>\n",Wisconsin-1176-2,59.957,1.0.0.560,1,-931173302,2.0.10.356,2.0.10.356,01-20-2023,1/20/2023 1:39:02 AM,09:39:02,2.0.10.252,2,,,,1.0,1.0,1.0,BlockProc,List3,3,,,,,,,,,,,,,,,,,2.0,1.0,3.0,,,,,,,NumberProc,List2,,,,,,,,,5.0,Button1.png,Button2.png,Button3.png,Button4.png,Redtriangle4.png,,,,,,,x,0.0,8.0,1.0,5.0,,,,0.0,TrialProc,NumberList,,,,,,,1.0,x,0.0,1.0,241827.0,0.0,x,1021.0,number
Wisconsin,1176,2,"<?xml version=""1.0""?>\n<Clock xmlns:dt=""urn:schemas-microsoft-com:datatypes""><Description dt:dt=""string"">E-Prime Primary Realtime Clock</Description><StartTime><Timestamp dt:dt=""int"">0</Timestamp><DateUtc dt:dt=""string"">2023-01-20T01:39:02Z</DateUtc></StartTime><FrequencyChanges><FrequencyChange><Frequency dt:dt=""r8"">2929814</Frequency><Timestamp dt:dt=""r8"">16248123046</Timestamp><Current dt:dt=""r8"">0</Current><DateUtc dt:dt=""string"">2023-01-20T01:39:02Z</DateUtc></FrequencyChange></FrequencyChanges></Clock>\n",Wisconsin-1176-2,59.957,1.0.0.560,1,-931173302,2.0.10.356,2.0.10.356,01-20-2023,1/20/2023 1:39:02 AM,09:39:02,2.0.10.252,2,,,,1.0,1.0,1.0,BlockProc,List3,3,,,,,,,,,,,,,,,,,2.0,1.0,3.0,,,,,,,NumberProc,List2,,,,,,,,,6.0,Button1.png,Button2.png,Button3.png,Button4.png,Redstar2.png,,,,,,,z,0.0,7.0,1.0,6.0,,,,0.0,TrialProc,NumberList,,,,,,,1.0,z,0.0,1.0,245379.0,0.0,z,2733.0,number
Wisconsin,1176,2,"<?xml version=""1.0""?>\n<Clock xmlns:dt=""urn:schemas-microsoft-com:datatypes""><Description dt:dt=""string"">E-Prime Primary Realtime Clock</Description><StartTime><Timestamp dt:dt=""int"">0</Timestamp><DateUtc dt:dt=""string"">2023-01-20T01:39:02Z</DateUtc></StartTime><FrequencyChanges><FrequencyChange><Frequency dt:dt=""r8"">2929814</Frequency><Timestamp dt:dt=""r8"">16248123046</Timestamp><Current dt:dt=""r8"">0</Current><DateUtc dt:dt=""string"">2023-01-20T01:39:02Z</DateUtc></FrequencyChange></FrequencyChanges></Clock>\n",Wisconsin-1176-2,59.957,1.0.0.560,1,-931173302,2.0.10.356,2.0.10.356,01-20-2023,1/20/2023 1:39:02 AM,09:39:02,2.0.10.252,2,,,,1.0,1.0,1.0,BlockProc,List3,3,,,,,,,,,,,,,,,,,2.0,1.0,3.0,,,,,,,NumberProc,List2,,,,,,,,,7.0,Button1.png,Button2.png,Button3.png,Button4.png,Greencross3.png,,,,,,,c,0.0,5.0,1.0,7.0,,,,0.0,TrialProc,NumberList,,,,,,,1.0,c,0.0,1.0,250650.0,0.0,c,1846.0,number
Wisconsin,1176,2,"<?xml version=""1.0""?>\n<Clock xmlns:dt=""urn:schemas-microsoft-com:datatypes""><Description dt:dt=""string"">E-Prime Primary Realtime Clock</Description><StartTime><Timestamp dt:dt=""int"">0</Timestamp><DateUtc dt:dt=""string"">2023-01-20T01:39:02Z</DateUtc></StartTime><FrequencyChanges><FrequencyChange><Frequency dt:dt=""r8"">2929814</Frequency><Timestamp dt:dt=""r8"">16248123046</Timestamp><Current dt:dt=""r8"">0</Current><DateUtc dt:dt=""string"">2023-01-20T01:39:02Z</DateUtc></FrequencyChange></FrequencyChanges></Clock>\n",Wisconsin-1176-2,59.957,1.0.0.560,1,-931173302,2.0.10.356,2.0.10.356,01-20-2023,1/20/2023 1:39:02 AM,09:39:02,2.0.10.252,2,,,,1.0,1.0,1.0,BlockProc,List3,3,,,,,,,,,,,,,,,,,2.0,1.0,3.0,,,,,,,NumberProc,List2,,,,,,,,,8.0,Button1.png,Button2.png,Button3.png,Button4.png,Yellowcross3.png,,,,,,,c,0.0,10.0,1.0,8.0,,,,0.0,TrialProc,NumberList,,,,,,,1.0,c,0.0,0.0,255036.0,0.0,c,2868.0,number
Wisconsin,1176,2,"<?xml version=""1.0""?>\n<Clock xmlns:dt=""urn:schemas-microsoft-com:datatypes""><Description dt:dt=""string"">E-Prime Primary Realtime Clock</Description><StartTime><Timestamp dt:dt=""int"">0</Timestamp><DateUtc dt:dt=""string"">2023-01-20T01:39:02Z</DateUtc></StartTime><FrequencyChanges><FrequencyChange><Frequency dt:dt=""r8"">2929814</Frequency><Timestamp dt:dt=""r8"">16248123046</Timestamp><Current dt:dt=""r8"">0</Current><DateUtc dt:dt=""string"">2023-01-20T01:39:02Z</DateUtc></FrequencyChange></FrequencyChanges></Clock>\n",Wisconsin-1176-2,59.957,1.0.0.560,1,-931173302,2.0.10.356,2.0.10.356,01-20-2023,1/20/2023 1:39:02 AM,09:39:02,2.0.10.252,2,,,,1.0,1.0,1.0,BlockProc,List3,3,,,,,,,,,,,,,,,,,2.0,1.0,3.0,,,,,,,NumberProc,List2,,,,,,,,,9.0,Button1.png,Button2.png,Button3.png,Button4.png,Yellowcross1.png,,,,,,,v,0.0,9.0,1.0,9.0,,,,0.0,TrialProc,NumberList,,,,,,,1.0,v,0.0,0.0,260440.0,0.0,v,1639.0,number
Wisconsin,1176,2,"<?xml version=""1.0""?>\n<Clock xmlns:dt=""urn:schemas-microsoft-com:datatypes""><Description dt:dt=""string"">E-Prime Primary Realtime Clock</Description><StartTime><Timestamp dt:dt=""int"">0</Timestamp><DateUtc dt:dt=""string"">2023-01-20T01:39:02Z</DateUtc></StartTime><FrequencyChanges><FrequencyChange><Frequency dt:dt=""r8"">2929814</Frequency><Timestamp dt:dt=""r8"">16248123046</Timestamp><Current dt:dt=""r8"">0</Current><DateUtc dt:dt=""string"">2023-01-20T01:39:02Z</DateUtc></FrequencyChange></FrequencyChanges></Clock>\n",Wisconsin-1176-2,59.957,1.0.0.560,1,-931173302,2.0.10.356,2.0.10.356,01-20-2023,1/20/2023 1:39:02 AM,09:39:02,2.0.10.252,2,,,,1.0,1.0,1.0,BlockProc,List3,3,,,,,,,,,,,,,,,,,2.0,1.0,3.0,,,,,,,NumberProc,List2,,,,,,,,,10.0,Button1.png,Button2.png,Button3.png,Button4.png,Bluetriangle1.png,,,,,,,v,0.0,3.0,1.0,10.0,,,,0.0,TrialProc,NumberList,,,,,,,1.0,v,0.0,1.0,264610.0,0.0,v,1133.0,number
Wisconsin,1176,2,"<?xml version=""1.0""?>\n<Clock xmlns:dt=""urn:schemas-microsoft-com:datatypes""><Description dt:dt=""string"">E-Prime Primary Realtime Clock</Description><StartTime><Timestamp dt:dt=""int"">0</Timestamp><DateUtc dt:dt=""string"">2023-01-20T01:39:02Z</DateUtc></StartTime><FrequencyChanges><FrequencyChange><Frequency dt:dt=""r8"">2929814</Frequency><Timestamp dt:dt=""r8"">16248123046</Timestamp><Current dt:dt=""r8"">0</Current><DateUtc dt:dt=""string"">2023-01-20T01:39:02Z</DateUtc></FrequencyChange></FrequencyChanges></Clock>\n",Wisconsin-1176-2,59.957,1.0.0.560,1,-931173302,2.0.10.356,2.0.10.356,01-20-2023,1/20/2023 1:39:02 AM,09:39:02,2.0.10.252,3,,,,2.0,1.0,2.0,BlockProc2,List3,1,,,,,,,,,,,,,,,,,,,,1.0,1.0,1.0,,,,ColorProc2,List4,,,,,,,,,1.0,BUTTON1.png,BUTTON2.PNG,BUTTON3.png,BUTTON4.png,bluestar3.png,,,,2.0,1.0,1.0,v,1.0,,,,,,,0.0,TrialProc,ColorList2,,,,,,,0.0,v,0.0,1.0,268280.0,0.0,c,1911.0,color
Wisconsin,1176,2,"<?xml version=""1.0""?>\n<Clock xmlns:dt=""urn:schemas-microsoft-com:datatypes""><Description dt:dt=""string"">E-Prime Primary Realtime Clock</Description><StartTime><Timestamp dt:dt=""int"">0</Timestamp><DateUtc dt:dt=""string"">2023-01-20T01:39:02Z</DateUtc></StartTime><FrequencyChanges><FrequencyChange><Frequency dt:dt=""r8"">2929814</Frequency><Timestamp dt:dt=""r8"">16248123046</Timestamp><Current dt:dt=""r8"">0</Current><DateUtc dt:dt=""string"">2023-01-20T01:39:02Z</DateUtc></FrequencyChange></FrequencyChanges></Clock>\n",Wisconsin-1176-2,59.957,1.0.0.560,1,-931173302,2.0.10.356,2.0.10.356,01-20-2023,1/20/2023 1:39:02 AM,09:39:02,2.0.10.252,3,,,,2.0,1.0,2.0,BlockProc2,List3,1,,,,,,,,,,,,,,,,,,,,1.0,1.0,1.0,,,,ColorProc2,List4,,,,,,,,,2.0,BUTTON1.png,BUTTON2.PNG,BUTTON3.png,BUTTON4.png,Greencircle1.png,,,,3.0,1.0,2.0,z,0.0,,,,,,,0.0,TrialProc,ColorList2,,,,,,,1.0,z,0.0,1.0,272733.0,0.0,z,1058.0,color
Wisconsin,1176,2,"<?xml version=""1.0""?>\n<Clock xmlns:dt=""urn:schemas-microsoft-com:datatypes""><Description dt:dt=""string"">E-Prime Primary Realtime Clock</Description><StartTime><Timestamp dt:dt=""int"">0</Timestamp><DateUtc dt:dt=""string"">2023-01-20T01:39:02Z</DateUtc></StartTime><FrequencyChanges><FrequencyChange><Frequency dt:dt=""r8"">2929814</Frequency><Timestamp dt:dt=""r8"">16248123046</Timestamp><Current dt:dt=""r8"">0</Current><DateUtc dt:dt=""string"">2023-01-20T01:39:02Z</DateUtc></FrequencyChange></FrequencyChanges></Clock>\n",Wisconsin-1176-2,59.957,1.0.0.560,1,-931173302,2.0.10.356,2.0.10.356,01-20-2023,1/20/2023 1:39:02 AM,09:39:02,2.0.10.252,3,,,,2.0,1.0,2.0,BlockProc2,List3,1,,,,,,,,,,,,,,,,,,,,1.0,1.0,1.0,,,,ColorProc2,List4,,,,,,,,,3.0,BUTTON1.png,BUTTON2.PNG,BUTTON3.png,BUTTON4.png,yellowcircle2.png,,,,9.0,1.0,3.0,x,1.0,,,,,,,0.0,TrialProc,ColorList2,,,,,,,0.0,x,0.0,1.0,276319.0,0.0,z,1232.0,color
Wisconsin,1176,2,"<?xml version=""1.0""?>\n<Clock xmlns:dt=""urn:schemas-microsoft-com:datatypes""><Description dt:dt=""string"">E-Prime Primary Realtime Clock</Description><StartTime><Timestamp dt:dt=""int"">0</Timestamp><DateUtc dt:dt=""string"">2023-01-20T01:39:02Z</DateUtc></StartTime><FrequencyChanges><FrequencyChange><Frequency dt:dt=""r8"">2929814</Frequency><Timestamp dt:dt=""r8"">16248123046</Timestamp><Current dt:dt=""r8"">0</Current><DateUtc dt:dt=""string"">2023-01-20T01:39:02Z</DateUtc></FrequencyChange></FrequencyChanges></Clock>\n",Wisconsin-1176-2,59.957,1.0.0.560,1,-931173302,2.0.10.356,2.0.10.356,01-20-2023,1/20/2023 1:39:02 AM,09:39:02,2.0.10.252,3,,,,2.0,1.0,2.0,BlockProc2,List3,1,,,,,,,,,,,,,,,,,,,,1.0,1.0,1.0,,,,ColorProc2,List4,,,,,,,,,4.0,BUTTON1.png,BUTTON2.PNG,BUTTON3.png,BUTTON4.png,greenstar4.png,,,,5.0,1.0,4.0,z,1.0,,,,,,,0.0,TrialProc,ColorList2,,,,,,,0.0,z,0.0,0.0,280088.0,0.0,x,1431.0,color
Wisconsin,1176,2,"<?xml version=""1.0""?>\n<Clock xmlns:dt=""urn:schemas-microsoft-com:datatypes""><Description dt:dt=""string"">E-Prime Primary Realtime Clock</Description><StartTime><Timestamp dt:dt=""int"">0</Timestamp><DateUtc dt:dt=""string"">2023-01-20T01:39:02Z</DateUtc></StartTime><FrequencyChanges><FrequencyChange><Frequency dt:dt=""r8"">2929814</Frequency><Timestamp dt:dt=""r8"">16248123046</Timestamp><Current dt:dt=""r8"">0</Current><DateUtc dt:dt=""string"">2023-01-20T01:39:02Z</DateUtc></FrequencyChange></FrequencyChanges></Clock>\n",Wisconsin-1176-2,59.957,1.0.0.560,1,-931173302,2.0.10.356,2.0.10.356,01-20-2023,1/20/2023 1:39:02 AM,09:39:02,2.0.10.252,3,,,,2.0,1.0,2.0,BlockProc2,List3,1,,,,,,,,,,,,,,,,,,,,1.0,1.0,1.0,,,,ColorProc2,List4,,,,,,,,,5.0,BUTTON1.png,BUTTON2.PNG,BUTTON3.png,BUTTON4.png,bluecross1.png,,,,1.0,1.0,5.0,v,0.0,,,,,,,0.0,TrialProc,ColorList2,,,,,,,1.0,v,0.0,1.0,284058.0,0.0,v,852.0,color
Wisconsin,1176,2,"<?xml version=""1.0""?>\n<Clock xmlns:dt=""urn:schemas-microsoft-com:datatypes""><Description dt:dt=""string"">E-Prime Primary Realtime Clock</Description><StartTime><Timestamp dt:dt=""int"">0</Timestamp><DateUtc dt:dt=""string"">2023-01-20T01:39:02Z</DateUtc></StartTime><FrequencyChanges><FrequencyChange><Frequency dt:dt=""r8"">2929814</Frequency><Timestamp dt:dt=""r8"">16248123046</Timestamp><Current dt:dt=""r8"">0</Current><DateUtc dt:dt=""string"">2023-01-20T01:39:02Z</DateUtc></FrequencyChange></FrequencyChanges></Clock>\n",Wisconsin-1176-2,59.957,1.0.0.560,1,-931173302,2.0.10.356,2.0.10.356,01-20-2023,1/20/2023 1:39:02 AM,09:39:02,2.0.10.252,3,,,,2.0,1.0,2.0,BlockProc2,List3,1,,,,,,,,,,,,,,,,,,,,1.0,1.0,1.0,,,,ColorProc2,List4,,,,,,,,,6.0,BUTTON1.png,BUTTON2.PNG,BUTTON3.png,BUTTON4.png,greentriangle2.png,,,,6.0,1.0,6.0,z,0.0,,,,,,,0.0,TrialProc,ColorList2,,,,,,,1.0,z,0.0,1.0,287444.0,0.0,z,1226.0,color
Wisconsin,1176,2,"<?xml version=""1.0""?>\n<Clock xmlns:dt=""urn:schemas-microsoft-com:datatypes""><Description dt:dt=""string"">E-Prime Primary Realtime Clock</Description><StartTime><Timestamp dt:dt=""int"">0</Timestamp><DateUtc dt:dt=""string"">2023-01-20T01:39:02Z</DateUtc></StartTime><FrequencyChanges><FrequencyChange><Frequency dt:dt=""r8"">2929814</Frequency><Timestamp dt:dt=""r8"">16248123046</Timestamp><Current dt:dt=""r8"">0</Current><DateUtc dt:dt=""string"">2023-01-20T01:39:02Z</DateUtc></FrequencyChange></FrequencyChanges></Clock>\n",Wisconsin-1176-2,59.957,1.0.0.560,1,-931173302,2.0.10.356,2.0.10.356,01-20-2023,1/20/2023 1:39:02 AM,09:39:02,2.0.10.252,3,,,,2.0,1.0,2.0,BlockProc2,List3,1,,,,,,,,,,,,,,,,,,,,1.0,1.0,1.0,,,,ColorProc2,List4,,,,,,,,,7.0,BUTTON1.png,BUTTON2.PNG,BUTTON3.png,BUTTON4.png,Redcircle2.png,,,,7.0,1.0,7.0,c,0.0,,,,,,,0.0,TrialProc,ColorList2,,,,,,,1.0,c,0.0,1.0,291213.0,0.0,c,993.0,color
Wisconsin,1176,2,"<?xml version=""1.0""?>\n<Clock xmlns:dt=""urn:schemas-microsoft-com:datatypes""><Description dt:dt=""string"">E-Prime Primary Realtime Clock</Description><StartTime><Timestamp dt:dt=""int"">0</Timestamp><DateUtc dt:dt=""string"">2023-01-20T01:39:02Z</DateUtc></StartTime><FrequencyChanges><FrequencyChange><Frequency dt:dt=""r8"">2929814</Frequency><Timestamp dt:dt=""r8"">16248123046</Timestamp><Current dt:dt=""r8"">0</Current><DateUtc dt:dt=""string"">2023-01-20T01:39:02Z</DateUtc></FrequencyChange></FrequencyChanges></Clock>\n",Wisconsin-1176-2,59.957,1.0.0.560,1,-931173302,2.0.10.356,2.0.10.356,01-20-2023,1/20/2023 1:39:02 AM,09:39:02,2.0.10.252,3,,,,2.0,1.0,2.0,BlockProc2,List3,1,,,,,,,,,,,,,,,,,,,,1.0,1.0,1.0,,,,ColorProc2,List4,,,,,,,,,8.0,BUTTON1.png,BUTTON2.PNG,BUTTON3.png,BUTTON4.png,yellowtriangle3.png,,,,10.0,1.0,8.0,x,0.0,,,,,,,0.0,TrialProc,ColorList2,,,,,,,1.0,x,0.0,1.0,294749.0,0.0,x,1233.0,color
Wisconsin,1176,2,"<?xml version=""1.0""?>\n<Clock xmlns:dt=""urn:schemas-microsoft-com:datatypes""><Description dt:dt=""string"">E-Prime Primary Realtime Clock</Description><StartTime><Timestamp dt:dt=""int"">0</Timestamp><DateUtc dt:dt=""string"">2023-01-20T01:39:02Z</DateUtc></StartTime><FrequencyChanges><FrequencyChange><Frequency dt:dt=""r8"">2929814</Frequency><Timestamp dt:dt=""r8"">16248123046</Timestamp><Current dt:dt=""r8"">0</Current><DateUtc dt:dt=""string"">2023-01-20T01:39:02Z</DateUtc></FrequencyChange></FrequencyChanges></Clock>\n",Wisconsin-1176-2,59.957,1.0.0.560,1,-931173302,2.0.10.356,2.0.10.356,01-20-2023,1/20/2023 1:39:02 AM,09:39:02,2.0.10.252,3,,,,2.0,1.0,2.0,BlockProc2,List3,1,,,,,,,,,,,,,,,,,,,,1.0,1.0,1.0,,,,ColorProc2,List4,,,,,,,,,9.0,BUTTON1.png,BUTTON2.PNG,BUTTON3.png,BUTTON4.png,greencross4.png,,,,4.0,1.0,9.0,z,0.0,,,,,,,0.0,TrialProc,ColorList2,,,,,,,1.0,z,0.0,1.0,298519.0,0.0,z,871.0,color
Wisconsin,1176,2,"<?xml version=""1.0""?>\n<Clock xmlns:dt=""urn:schemas-microsoft-com:datatypes""><Description dt:dt=""string"">E-Prime Primary Realtime Clock</Description><StartTime><Timestamp dt:dt=""int"">0</Timestamp><DateUtc dt:dt=""string"">2023-01-20T01:39:02Z</DateUtc></StartTime><FrequencyChanges><FrequencyChange><Frequency dt:dt=""r8"">2929814</Frequency><Timestamp dt:dt=""r8"">16248123046</Timestamp><Current dt:dt=""r8"">0</Current><DateUtc dt:dt=""string"">2023-01-20T01:39:02Z</DateUtc></FrequencyChange></FrequencyChanges></Clock>\n",Wisconsin-1176-2,59.957,1.0.0.560,1,-931173302,2.0.10.356,2.0.10.356,01-20-2023,1/20/2023 1:39:02 AM,09:39:02,2.0.10.252,3,,,,2.0,1.0,2.0,BlockProc2,List3,1,,,,,,,,,,,,,,,,,,,,1.0,1.0,1.0,,,,ColorProc2,List4,,,,,,,,,10.0,BUTTON1.png,BUTTON2.PNG,BUTTON3.png,BUTTON4.png,redstar4.png,,,,8.0,1.0,10.0,c,0.0,,,,,,,0.0,TrialProc,ColorList2,,,,,,,1.0,c,0.0,1.0,301921.0,0.0,c,1005.0,color
Wisconsin,1176,2,"<?xml version=""1.0""?>\n<Clock xmlns:dt=""urn:schemas-microsoft-com:datatypes""><Description dt:dt=""string"">E-Prime Primary Realtime Clock</Description><StartTime><Timestamp dt:dt=""int"">0</Timestamp><DateUtc dt:dt=""string"">2023-01-20T01:39:02Z</DateUtc></StartTime><FrequencyChanges><FrequencyChange><Frequency dt:dt=""r8"">2929814</Frequency><Timestamp dt:dt=""r8"">16248123046</Timestamp><Current dt:dt=""r8"">0</Current><DateUtc dt:dt=""string"">2023-01-20T01:39:02Z</DateUtc></FrequencyChange></FrequencyChanges></Clock>\n",Wisconsin-1176-2,59.957,1.0.0.560,1,-931173302,2.0.10.356,2.0.10.356,01-20-2023,1/20/2023 1:39:02 AM,09:39:02,2.0.10.252,3,,,,2.0,1.0,2.0,BlockProc2,List3,2,,,,,,,,,,,,,,,,,,,,2.0,1.0,2.0,,,,NumberProc2,List4,,,,,,,,,1.0,Button1.png,Button2.png,Button3.png,Button4.png,Greenstar1.png,,,,,,,v,1.0,,,,5.0,1.0,1.0,0.0,TrialProc,NumberList1,,,,,,,0.0,v,0.0,1.0,305457.0,0.0,z,845.0,number
Wisconsin,1176,2,"<?xml version=""1.0""?>\n<Clock xmlns:dt=""urn:schemas-microsoft-com:datatypes""><Description dt:dt=""string"">E-Prime Primary Realtime Clock</Description><StartTime><Timestamp dt:dt=""int"">0</Timestamp><DateUtc dt:dt=""string"">2023-01-20T01:39:02Z</DateUtc></StartTime><FrequencyChanges><FrequencyChange><Frequency dt:dt=""r8"">2929814</Frequency><Timestamp dt:dt=""r8"">16248123046</Timestamp><Current dt:dt=""r8"">0</Current><DateUtc dt:dt=""string"">2023-01-20T01:39:02Z</DateUtc></FrequencyChange></FrequencyChanges></Clock>\n",Wisconsin-1176-2,59.957,1.0.0.560,1,-931173302,2.0.10.356,2.0.10.356,01-20-2023,1/20/2023 1:39:02 AM,09:39:02,2.0.10.252,3,,,,2.0,1.0,2.0,BlockProc2,List3,2,,,,,,,,,,,,,,,,,,,,2.0,1.0,2.0,,,,NumberProc2,List4,,,,,,,,,2.0,Button1.png,Button2.png,Button3.png,Button4.png,Greencross2.png,,,,,,,z,0.0,,,,4.0,1.0,2.0,0.0,TrialProc,NumberList1,,,,,,,1.0,z,0.0,1.0,308843.0,0.0,z,2194.0,number
Wisconsin,1176,2,"<?xml version=""1.0""?>\n<Clock xmlns:dt=""urn:schemas-microsoft-com:datatypes""><Description dt:dt=""string"">E-Prime Primary Realtime Clock</Description><StartTime><Timestamp dt:dt=""int"">0</Timestamp><DateUtc dt:dt=""string"">2023-01-20T01:39:02Z</DateUtc></StartTime><FrequencyChanges><FrequencyChange><Frequency dt:dt=""r8"">2929814</Frequency><Timestamp dt:dt=""r8"">16248123046</Timestamp><Current dt:dt=""r8"">0</Current><DateUtc dt:dt=""string"">2023-01-20T01:39:02Z</DateUtc></FrequencyChange></FrequencyChanges></Clock>\n",Wisconsin-1176-2,59.957,1.0.0.560,1,-931173302,2.0.10.356,2.0.10.356,01-20-2023,1/20/2023 1:39:02 AM,09:39:02,2.0.10.252,3,,,,2.0,1.0,2.0,BlockProc2,List3,2,,,,,,,,,,,,,,,,,,,,2.0,1.0,2.0,,,,NumberProc2,List4,,,,,,,,,3.0,Button1.png,Button2.png,Button3.png,Button4.png,Bluecross3.png,,,,,,,c,0.0,,,,1.0,1.0,3.0,0.0,TrialProc,NumberList1,,,,,,,1.0,c,0.0,1.0,313580.0,0.0,c,977.0,number
Wisconsin,1176,2,"<?xml version=""1.0""?>\n<Clock xmlns:dt=""urn:schemas-microsoft-com:datatypes""><Description dt:dt=""string"">E-Prime Primary Realtime Clock</Description><StartTime><Timestamp dt:dt=""int"">0</Timestamp><DateUtc dt:dt=""string"">2023-01-20T01:39:02Z</DateUtc></StartTime><FrequencyChanges><FrequencyChange><Frequency dt:dt=""r8"">2929814</Frequency><Timestamp dt:dt=""r8"">16248123046</Timestamp><Current dt:dt=""r8"">0</Current><DateUtc dt:dt=""string"">2023-01-20T01:39:02Z</DateUtc></FrequencyChange></FrequencyChanges></Clock>\n",Wisconsin-1176-2,59.957,1.0.0.560,1,-931173302,2.0.10.356,2.0.10.356,01-20-2023,1/20/2023 1:39:02 AM,09:39:02,2.0.10.252,3,,,,2.0,1.0,2.0,BlockProc2,List3,2,,,,,,,,,,,,,,,,,,,,2.0,1.0,2.0,,,,NumberProc2,List4,,,,,,,,,4.0,Button1.png,Button2.png,Button3.png,Button4.png,Redtriangle2.png,,,,,,,z,1.0,,,,7.0,1.0,4.0,0.0,TrialProc,NumberList1,,,,,,,0.0,z,0.0,1.0,317099.0,0.0,c,5874.0,number
Wisconsin,1176,2,"<?xml version=""1.0""?>\n<Clock xmlns:dt=""urn:schemas-microsoft-com:datatypes""><Description dt:dt=""string"">E-Prime Primary Realtime Clock</Description><StartTime><Timestamp dt:dt=""int"">0</Timestamp><DateUtc dt:dt=""string"">2023-01-20T01:39:02Z</DateUtc></StartTime><FrequencyChanges><FrequencyChange><Frequency dt:dt=""r8"">2929814</Frequency><Timestamp dt:dt=""r8"">16248123046</Timestamp><Current dt:dt=""r8"">0</Current><DateUtc dt:dt=""string"">2023-01-20T01:39:02Z</DateUtc></FrequencyChange></FrequencyChanges></Clock>\n",Wisconsin-1176-2,59.957,1.0.0.560,1,-931173302,2.0.10.356,2.0.10.356,01-20-2023,1/20/2023 1:39:02 AM,09:39:02,2.0.10.252,3,,,,2.0,1.0,2.0,BlockProc2,List3,2,,,,,,,,,,,,,,,,,,,,2.0,1.0,2.0,,,,NumberProc2,List4,,,,,,,,,5.0,Button1.png,Button2.png,Button3.png,Button4.png,Yellowtriangle2.png,,,,,,,z,1.0,,,,10.0,1.0,5.0,0.0,TrialProc,NumberList1,,,,,,,0.0,z,0.0,1.0,325505.0,0.0,x,956.0,number
Wisconsin,1176,2,"<?xml version=""1.0""?>\n<Clock xmlns:dt=""urn:schemas-microsoft-com:datatypes""><Description dt:dt=""string"">E-Prime Primary Realtime Clock</Description><StartTime><Timestamp dt:dt=""int"">0</Timestamp><DateUtc dt:dt=""string"">2023-01-20T01:39:02Z</DateUtc></StartTime><FrequencyChanges><FrequencyChange><Frequency dt:dt=""r8"">2929814</Frequency><Timestamp dt:dt=""r8"">16248123046</Timestamp><Current dt:dt=""r8"">0</Current><DateUtc dt:dt=""string"">2023-01-20T01:39:02Z</DateUtc></FrequencyChange></FrequencyChanges></Clock>\n",Wisconsin-1176-2,59.957,1.0.0.560,1,-931173302,2.0.10.356,2.0.10.356,01-20-2023,1/20/2023 1:39:02 AM,09:39:02,2.0.10.252,3,,,,2.0,1.0,2.0,BlockProc2,List3,2,,,,,,,,,,,,,,,,,,,,2.0,1.0,2.0,,,,NumberProc2,List4,,,,,,,,,6.0,Button1.png,Button2.png,Button3.png,Button4.png,Bluetriangle4.png,,,,,,,x,1.0,,,,3.0,1.0,6.0,0.0,TrialProc,NumberList1,,,,,,,0.0,x,0.0,1.0,328991.0,0.0,v,1134.0,number
Wisconsin,1176,2,"<?xml version=""1.0""?>\n<Clock xmlns:dt=""urn:schemas-microsoft-com:datatypes""><Description dt:dt=""string"">E-Prime Primary Realtime Clock</Description><StartTime><Timestamp dt:dt=""int"">0</Timestamp><DateUtc dt:dt=""string"">2023-01-20T01:39:02Z</DateUtc></StartTime><FrequencyChanges><FrequencyChange><Frequency dt:dt=""r8"">2929814</Frequency><Timestamp dt:dt=""r8"">16248123046</Timestamp><Current dt:dt=""r8"">0</Current><DateUtc dt:dt=""string"">2023-01-20T01:39:02Z</DateUtc></FrequencyChange></FrequencyChanges></Clock>\n",Wisconsin-1176-2,59.957,1.0.0.560,1,-931173302,2.0.10.356,2.0.10.356,01-20-2023,1/20/2023 1:39:02 AM,09:39:02,2.0.10.252,3,,,,2.0,1.0,2.0,BlockProc2,List3,2,,,,,,,,,,,,,,,,,,,,2.0,1.0,2.0,,,,NumberProc2,List4,,,,,,,,,7.0,Button1.png,Button2.png,Button3.png,Button4.png,Bluestar4.png,,,,,,,x,0.0,,,,2.0,1.0,7.0,0.0,TrialProc,NumberList1,,,,,,,1.0,x,0.0,1.0,332661.0,0.0,x,1991.0,number
Wisconsin,1176,2,"<?xml version=""1.0""?>\n<Clock xmlns:dt=""urn:schemas-microsoft-com:datatypes""><Description dt:dt=""string"">E-Prime Primary Realtime Clock</Description><StartTime><Timestamp dt:dt=""int"">0</Timestamp><DateUtc dt:dt=""string"">2023-01-20T01:39:02Z</DateUtc></StartTime><FrequencyChanges><FrequencyChange><Frequency dt:dt=""r8"">2929814</Frequency><Timestamp dt:dt=""r8"">16248123046</Timestamp><Current dt:dt=""r8"">0</Current><DateUtc dt:dt=""string"">2023-01-20T01:39:02Z</DateUtc></FrequencyChange></FrequencyChanges></Clock>\n",Wisconsin-1176-2,59.957,1.0.0.560,1,-931173302,2.0.10.356,2.0.10.356,01-20-2023,1/20/2023 1:39:02 AM,09:39:02,2.0.10.252,3,,,,2.0,1.0,2.0,BlockProc2,List3,2,,,,,,,,,,,,,,,,,,,,2.0,1.0,2.0,,,,NumberProc2,List4,,,,,,,,,8.0,Button1.png,Button2.png,Button3.png,Button4.png,Redstar1.png,,,,,,,v,0.0,,,,6.0,1.0,8.0,0.0,TrialProc,NumberList1,,,,,,,1.0,v,0.0,1.0,337197.0,0.0,v,1263.0,number
Wisconsin,1176,2,"<?xml version=""1.0""?>\n<Clock xmlns:dt=""urn:schemas-microsoft-com:datatypes""><Description dt:dt=""string"">E-Prime Primary Realtime Clock</Description><StartTime><Timestamp dt:dt=""int"">0</Timestamp><DateUtc dt:dt=""string"">2023-01-20T01:39:02Z</DateUtc></StartTime><FrequencyChanges><FrequencyChange><Frequency dt:dt=""r8"">2929814</Frequency><Timestamp dt:dt=""r8"">16248123046</Timestamp><Current dt:dt=""r8"">0</Current><DateUtc dt:dt=""string"">2023-01-20T01:39:02Z</DateUtc></FrequencyChange></FrequencyChanges></Clock>\n",Wisconsin-1176-2,59.957,1.0.0.560,1,-931173302,2.0.10.356,2.0.10.356,01-20-2023,1/20/2023 1:39:02 AM,09:39:02,2.0.10.252,3,,,,2.0,1.0,2.0,BlockProc2,List3,2,,,,,,,,,,,,,,,,,,,,2.0,1.0,2.0,,,,NumberProc2,List4,,,,,,,,,9.0,Button1.png,Button2.png,Button3.png,Button4.png,yellowcircle4.png,,,,,,,x,0.0,,,,8.0,1.0,9.0,0.0,TrialProc,NumberList1,,,,,,,1.0,x,0.0,1.0,341000.0,0.0,x,1060.0,number
Wisconsin,1176,2,"<?xml version=""1.0""?>\n<Clock xmlns:dt=""urn:schemas-microsoft-com:datatypes""><Description dt:dt=""string"">E-Prime Primary Realtime Clock</Description><StartTime><Timestamp dt:dt=""int"">0</Timestamp><DateUtc dt:dt=""string"">2023-01-20T01:39:02Z</DateUtc></StartTime><FrequencyChanges><FrequencyChange><Frequency dt:dt=""r8"">2929814</Frequency><Timestamp dt:dt=""r8"">16248123046</Timestamp><Current dt:dt=""r8"">0</Current><DateUtc dt:dt=""string"">2023-01-20T01:39:02Z</DateUtc></FrequencyChange></FrequencyChanges></Clock>\n",Wisconsin-1176-2,59.957,1.0.0.560,1,-931173302,2.0.10.356,2.0.10.356,01-20-2023,1/20/2023 1:39:02 AM,09:39:02,2.0.10.252,3,,,,2.0,1.0,2.0,BlockProc2,List3,2,,,,,,,,,,,,,,,,,,,,2.0,1.0,2.0,,,,NumberProc2,List4,,,,,,,,,10.0,Button1.png,Button2.png,Button3.png,Button4.png,Yellowcross2.png,,,,,,,z,0.0,,,,9.0,1.0,10.0,0.0,TrialProc,NumberList1,,,,,,,1.0,z,0.0,1.0,344603.0,0.0,z,881.0,number
Wisconsin,1176,2,"<?xml version=""1.0""?>\n<Clock xmlns:dt=""urn:schemas-microsoft-com:datatypes""><Description dt:dt=""string"">E-Prime Primary Realtime Clock</Description><StartTime><Timestamp dt:dt=""int"">0</Timestamp><DateUtc dt:dt=""string"">2023-01-20T01:39:02Z</DateUtc></StartTime><FrequencyChanges><FrequencyChange><Frequency dt:dt=""r8"">2929814</Frequency><Timestamp dt:dt=""r8"">16248123046</Timestamp><Current dt:dt=""r8"">0</Current><DateUtc dt:dt=""string"">2023-01-20T01:39:02Z</DateUtc></FrequencyChange></FrequencyChanges></Clock>\n",Wisconsin-1176-2,59.957,1.0.0.560,1,-931173302,2.0.10.356,2.0.10.356,01-20-2023,1/20/2023 1:39:02 AM,09:39:02,2.0.10.252,3,,,,2.0,1.0,2.0,BlockProc2,List3,3,,,,,,,,,,,,,,,,,,,,3.0,1.0,3.0,,,,ShapeProc2,List4,,,,,,,,,1.0,Button1.png,Button2.png,Button3.png,Button4.png,redcircle1.png,,,,,,,z,1.0,,,,,,,0.0,TrialProc,ShapeList1,,,,4.0,1.0,1.0,0.0,z,0.0,1.0,348022.0,0.0,v,1414.0,Shape
Wisconsin,1176,2,"<?xml version=""1.0""?>\n<Clock xmlns:dt=""urn:schemas-microsoft-com:datatypes""><Description dt:dt=""string"">E-Prime Primary Realtime Clock</Description><StartTime><Timestamp dt:dt=""int"">0</Timestamp><DateUtc dt:dt=""string"">2023-01-20T01:39:02Z</DateUtc></StartTime><FrequencyChanges><FrequencyChange><Frequency dt:dt=""r8"">2929814</Frequency><Timestamp dt:dt=""r8"">16248123046</Timestamp><Current dt:dt=""r8"">0</Current><DateUtc dt:dt=""string"">2023-01-20T01:39:02Z</DateUtc></FrequencyChange></FrequencyChanges></Clock>\n",Wisconsin-1176-2,59.957,1.0.0.560,1,-931173302,2.0.10.356,2.0.10.356,01-20-2023,1/20/2023 1:39:02 AM,09:39:02,2.0.10.252,3,,,,2.0,1.0,2.0,BlockProc2,List3,3,,,,,,,,,,,,,,,,,,,,3.0,1.0,3.0,,,,ShapeProc2,List4,,,,,,,,,2.0,Button1.png,Button2.png,Button3.png,Button4.png,yellowcross4.png,,,,,,,c,1.0,,,,,,,0.0,TrialProc,ShapeList1,,,,8.0,1.0,2.0,0.0,c,0.0,1.0,351975.0,0.0,x,1029.0,Shape
Wisconsin,1176,2,"<?xml version=""1.0""?>\n<Clock xmlns:dt=""urn:schemas-microsoft-com:datatypes""><Description dt:dt=""string"">E-Prime Primary Realtime Clock</Description><StartTime><Timestamp dt:dt=""int"">0</Timestamp><DateUtc dt:dt=""string"">2023-01-20T01:39:02Z</DateUtc></StartTime><FrequencyChanges><FrequencyChange><Frequency dt:dt=""r8"">2929814</Frequency><Timestamp dt:dt=""r8"">16248123046</Timestamp><Current dt:dt=""r8"">0</Current><DateUtc dt:dt=""string"">2023-01-20T01:39:02Z</DateUtc></FrequencyChange></FrequencyChanges></Clock>\n",Wisconsin-1176-2,59.957,1.0.0.560,1,-931173302,2.0.10.356,2.0.10.356,01-20-2023,1/20/2023 1:39:02 AM,09:39:02,2.0.10.252,3,,,,2.0,1.0,2.0,BlockProc2,List3,3,,,,,,,,,,,,,,,,,,,,3.0,1.0,3.0,,,,ShapeProc2,List4,,,,,,,,,3.0,Button1.png,Button2.png,Button3.png,Button4.png,Yellowtriangle1.png,,,,,,,x,0.0,,,,,,,0.0,TrialProc,ShapeList1,,,,10.0,1.0,3.0,1.0,x,0.0,1.0,355544.0,0.0,x,1011.0,Shape
Wisconsin,1176,2,"<?xml version=""1.0""?>\n<Clock xmlns:dt=""urn:schemas-microsoft-com:datatypes""><Description dt:dt=""string"">E-Prime Primary Realtime Clock</Description><StartTime><Timestamp dt:dt=""int"">0</Timestamp><DateUtc dt:dt=""string"">2023-01-20T01:39:02Z</DateUtc></StartTime><FrequencyChanges><FrequencyChange><Frequency dt:dt=""r8"">2929814</Frequency><Timestamp dt:dt=""r8"">16248123046</Timestamp><Current dt:dt=""r8"">0</Current><DateUtc dt:dt=""string"">2023-01-20T01:39:02Z</DateUtc></FrequencyChange></FrequencyChanges></Clock>\n",Wisconsin-1176-2,59.957,1.0.0.560,1,-931173302,2.0.10.356,2.0.10.356,01-20-2023,1/20/2023 1:39:02 AM,09:39:02,2.0.10.252,3,,,,2.0,1.0,2.0,BlockProc2,List3,3,,,,,,,,,,,,,,,,,,,,3.0,1.0,3.0,,,,ShapeProc2,List4,,,,,,,,,4.0,Button1.png,Button2.png,Button3.png,Button4.png,Redtriangle3.png,,,,,,,x,0.0,,,,,,,0.0,TrialProc,ShapeList1,,,,7.0,1.0,4.0,1.0,x,0.0,1.0,359097.0,0.0,x,1378.0,Shape
Wisconsin,1176,2,"<?xml version=""1.0""?>\n<Clock xmlns:dt=""urn:schemas-microsoft-com:datatypes""><Description dt:dt=""string"">E-Prime Primary Realtime Clock</Description><StartTime><Timestamp dt:dt=""int"">0</Timestamp><DateUtc dt:dt=""string"">2023-01-20T01:39:02Z</DateUtc></StartTime><FrequencyChanges><FrequencyChange><Frequency dt:dt=""r8"">2929814</Frequency><Timestamp dt:dt=""r8"">16248123046</Timestamp><Current dt:dt=""r8"">0</Current><DateUtc dt:dt=""string"">2023-01-20T01:39:02Z</DateUtc></FrequencyChange></FrequencyChanges></Clock>\n",Wisconsin-1176-2,59.957,1.0.0.560,1,-931173302,2.0.10.356,2.0.10.356,01-20-2023,1/20/2023 1:39:02 AM,09:39:02,2.0.10.252,3,,,,2.0,1.0,2.0,BlockProc2,List3,3,,,,,,,,,,,,,,,,,,,,3.0,1.0,3.0,,,,ShapeProc2,List4,,,,,,,,,5.0,Button1.png,Button2.png,Button3.png,Button4.png,Redcross2.png,,,,,,,c,0.0,,,,,,,0.0,TrialProc,ShapeList1,,,,5.0,1.0,5.0,1.0,c,0.0,0.0,363016.0,0.0,c,1123.0,Shape
Wisconsin,1176,2,"<?xml version=""1.0""?>\n<Clock xmlns:dt=""urn:schemas-microsoft-com:datatypes""><Description dt:dt=""string"">E-Prime Primary Realtime Clock</Description><StartTime><Timestamp dt:dt=""int"">0</Timestamp><DateUtc dt:dt=""string"">2023-01-20T01:39:02Z</DateUtc></StartTime><FrequencyChanges><FrequencyChange><Frequency dt:dt=""r8"">2929814</Frequency><Timestamp dt:dt=""r8"">16248123046</Timestamp><Current dt:dt=""r8"">0</Current><DateUtc dt:dt=""string"">2023-01-20T01:39:02Z</DateUtc></FrequencyChange></FrequencyChanges></Clock>\n",Wisconsin-1176-2,59.957,1.0.0.560,1,-931173302,2.0.10.356,2.0.10.356,01-20-2023,1/20/2023 1:39:02 AM,09:39:02,2.0.10.252,3,,,,2.0,1.0,2.0,BlockProc2,List3,3,,,,,,,,,,,,,,,,,,,,3.0,1.0,3.0,,,,ShapeProc2,List4,,,,,,,,,6.0,Button1.png,Button2.png,Button3.png,Button4.png,Yellowstar2.png,,,,,,,v,0.0,,,,,,,0.0,TrialProc,ShapeList1,,,,9.0,1.0,6.0,1.0,v,0.0,1.0,366669.0,0.0,v,1214.0,Shape
Wisconsin,1176,2,"<?xml version=""1.0""?>\n<Clock xmlns:dt=""urn:schemas-microsoft-com:datatypes""><Description dt:dt=""string"">E-Prime Primary Realtime Clock</Description><StartTime><Timestamp dt:dt=""int"">0</Timestamp><DateUtc dt:dt=""string"">2023-01-20T01:39:02Z</DateUtc></StartTime><FrequencyChanges><FrequencyChange><Frequency dt:dt=""r8"">2929814</Frequency><Timestamp dt:dt=""r8"">16248123046</Timestamp><Current dt:dt=""r8"">0</Current><DateUtc dt:dt=""string"">2023-01-20T01:39:02Z</DateUtc></FrequencyChange></FrequencyChanges></Clock>\n",Wisconsin-1176-2,59.957,1.0.0.560,1,-931173302,2.0.10.356,2.0.10.356,01-20-2023,1/20/2023 1:39:02 AM,09:39:02,2.0.10.252,3,,,,2.0,1.0,2.0,BlockProc2,List3,3,,,,,,,,,,,,,,,,,,,,3.0,1.0,3.0,,,,ShapeProc2,List4,,,,,,,,,7.0,Button1.png,Button2.png,Button3.png,Button4.png,Bluetriangle2.png,,,,,,,x,0.0,,,,,,,0.0,TrialProc,ShapeList1,,,,2.0,1.0,7.0,1.0,x,0.0,1.0,370422.0,0.0,x,1077.0,Shape
Wisconsin,1176,2,"<?xml version=""1.0""?>\n<Clock xmlns:dt=""urn:schemas-microsoft-com:datatypes""><Description dt:dt=""string"">E-Prime Primary Realtime Clock</Description><StartTime><Timestamp dt:dt=""int"">0</Timestamp><DateUtc dt:dt=""string"">2023-01-20T01:39:02Z</DateUtc></StartTime><FrequencyChanges><FrequencyChange><Frequency dt:dt=""r8"">2929814</Frequency><Timestamp dt:dt=""r8"">16248123046</Timestamp><Current dt:dt=""r8"">0</Current><DateUtc dt:dt=""string"">2023-01-20T01:39:02Z</DateUtc></FrequencyChange></FrequencyChanges></Clock>\n",Wisconsin-1176-2,59.957,1.0.0.560,1,-931173302,2.0.10.356,2.0.10.356,01-20-2023,1/20/2023 1:39:02 AM,09:39:02,2.0.10.252,3,,,,2.0,1.0,2.0,BlockProc2,List3,3,,,,,,,,,,,,,,,,,,,,3.0,1.0,3.0,,,,ShapeProc2,List4,,,,,,,,,8.0,Button1.png,Button2.png,Button3.png,Button4.png,Bluecircle3.png,,,,,,,z,0.0,,,,,,,0.0,TrialProc,ShapeList1,,,,1.0,1.0,8.0,1.0,z,0.0,1.0,374041.0,0.0,z,994.0,Shape
Wisconsin,1176,2,"<?xml version=""1.0""?>\n<Clock xmlns:dt=""urn:schemas-microsoft-com:datatypes""><Description dt:dt=""string"">E-Prime Primary Realtime Clock</Description><StartTime><Timestamp dt:dt=""int"">0</Timestamp><DateUtc dt:dt=""string"">2023-01-20T01:39:02Z</DateUtc></StartTime><FrequencyChanges><FrequencyChange><Frequency dt:dt=""r8"">2929814</Frequency><Timestamp dt:dt=""r8"">16248123046</Timestamp><Current dt:dt=""r8"">0</Current><DateUtc dt:dt=""string"">2023-01-20T01:39:02Z</DateUtc></FrequencyChange></FrequencyChanges></Clock>\n",Wisconsin-1176-2,59.957,1.0.0.560,1,-931173302,2.0.10.356,2.0.10.356,01-20-2023,1/20/2023 1:39:02 AM,09:39:02,2.0.10.252,3,,,,2.0,1.0,2.0,BlockProc2,List3,3,,,,,,,,,,,,,,,,,,,,3.0,1.0,3.0,,,,ShapeProc2,List4,,,,,,,,,9.0,Button1.png,Button2.png,Button3.png,Button4.png,Greenstar3.png,,,,,,,v,0.0,,,,,,,0.0,TrialProc,ShapeList1,,,,3.0,1.0,9.0,1.0,v,0.0,1.0,377577.0,0.0,v,1073.0,Shape
Wisconsin,1176,2,"<?xml version=""1.0""?>\n<Clock xmlns:dt=""urn:schemas-microsoft-com:datatypes""><Description dt:dt=""string"">E-Prime Primary Realtime Clock</Description><StartTime><Timestamp dt:dt=""int"">0</Timestamp><DateUtc dt:dt=""string"">2023-01-20T01:39:02Z</DateUtc></StartTime><FrequencyChanges><FrequencyChange><Frequency dt:dt=""r8"">2929814</Frequency><Timestamp dt:dt=""r8"">16248123046</Timestamp><Current dt:dt=""r8"">0</Current><DateUtc dt:dt=""string"">2023-01-20T01:39:02Z</DateUtc></FrequencyChange></FrequencyChanges></Clock>\n",Wisconsin-1176-2,59.957,1.0.0.560,1,-931173302,2.0.10.356,2.0.10.356,01-20-2023,1/20/2023 1:39:02 AM,09:39:02,2.0.10.252,3,,,,2.0,1.0,2.0,BlockProc2,List3,3,,,,,,,,,,,,,,,,,,,,3.0,1.0,3.0,,,,ShapeProc2,List4,,,,,,,,,10.0,Button1.png,Button2.png,Button3.png,Button4.png,Redstar3.png,,,,,,,v,0.0,,,,,,,0.0,TrialProc,ShapeList1,,,,6.0,1.0,10.0,1.0,v,0.0,1.0,381180.0,0.0,v,1214.0,Shape
