ExperimentName,Subject,Session,Clock.Information,DataFile.Basename,Display.RefreshRate,ExperimentVersion,Group,RandomSeed,RuntimeVersion,RuntimeVersionExpected,SessionDate,SessionStartDateTimeUtc,SessionTime,StudioVersion,Block,List1,List1.Cycle,List1.Sample,List3,List3.Cycle,List3.Sample,Procedure[Block],Running[Block],Trial,CardIMG1[Trial],CardIMG2[Trial],CardIMG3[Trial],CardIMG4[Trial],CardStim[Trial],Category,CorrectAnswer[Trial],FeedbackDisplay2.ACC,FeedbackDisplay2.CRESP,FeedbackDisplay2.DurationError,FeedbackDisplay2.OnsetDelay,FeedbackDisplay2.OnsetTime,FeedbackDisplay2.OnsetToOnsetTime,FeedbackDisplay2.RESP,FeedbackDisplay2.RT,FeedbackDisplay2.RTTime,List2,List2.Cycle,List2.Sample,List4,List4.Cycle,List4.Sample,PracticeList,PracticeList.Cycle,PracticeList.Sample,Procedure[Trial],Running[Trial],FeedbackDisplay2.ACC,FeedbackDisplay2.CRESP,FeedbackDisplay2.DurationError,FeedbackDisplay2.OnsetDelay,FeedbackDisplay2.OnsetTime,FeedbackDisplay2.OnsetToOnsetTime,FeedbackDisplay2.RESP,FeedbackDisplay2.RT,SubTrial,CardIMG1[SubTrial],CardIMG2[SubTrial],CardIMG3[SubTrial],CardIMG4[SubTrial],CardStim[SubTrial],ColorList,ColorList.Cycle,ColorList.Sample,ColorList2,ColorList2.Cycle,ColorList2.Sample,CorrectAnswer[SubTrial],NonPerseverativeError,NumberList,NumberList.Cycle,NumberList.Sample,NumberList1,NumberList1.Cycle,NumberList1.Sample,PerseverativeError,Procedure[SubTrial],Running[SubTrial],ShapeList,ShapeList.Cycle,ShapeList.Sample,ShapeList1,ShapeList1.Cycle,ShapeList1.Sample,Stimulus.ACC,Stimulus.CRESP,Stimulus.DurationError,Stimulus.OnsetDelay,Stimulus.OnsetTime,Stimulus.OnsetToOnsetTime,Stimulus.RESP,Stimulus.RT,TrialType
Wisconsin,1174,3,"<?xml version=""1.0""?>\n<Clock xmlns:dt=""urn:schemas-microsoft-com:datatypes""><Description dt:dt=""string"">E-Prime Primary Realtime Clock</Description><StartTime><Timestamp dt:dt=""int"">0</Timestamp><DateUtc dt:dt=""string"">2023-01-14T09:19:37Z</DateUtc></StartTime><FrequencyChanges><FrequencyChange><Frequency dt:dt=""r8"">10000000</Frequency><Timestamp dt:dt=""r8"">24312500921768</Timestamp><Current dt:dt=""r8"">0</Current><DateUtc dt:dt=""string"">2023-01-14T09:19:37Z</DateUtc></FrequencyChange></FrequencyChanges></Clock>\n",Wisconsin-1174-3,60.014,1.0.0.257,1,-1306348481,3.0.3.80,3.0.3.80,01-14-2023,1/14/2023 9:19:38 AM,17:19:38,3.0.3.82,1,1.0,1.0,1.0,,,,Practiceploc,List1,1,Button1.png,Button2.png,Button3.png,Button4.png,Greencircle3.png,顏色,{button1},1.0,{button1},13.0,50.0,90872.0,0.0,{Button1},1853.0,92725.0,,,,,,,1.0,1.0,1.0,PracticeTrialProc,PracticeList,1.0,{button1},13.0,50.0,90872.0,0.0,{Button1},1853.0,,,,,,,,,,,,,,,,,,,,,,,,,,,,,,,,,,,,,,
Wisconsin,1174,3,"<?xml version=""1.0""?>\n<Clock xmlns:dt=""urn:schemas-microsoft-com:datatypes""><Description dt:dt=""string"">E-Prime Primary Realtime Clock</Description><StartTime><Timestamp dt:dt=""int"">0</Timestamp><DateUtc dt:dt=""string"">2023-01-14T09:19:37Z</DateUtc></StartTime><FrequencyChanges><FrequencyChange><Frequency dt:dt=""r8"">10000000</Frequency><Timestamp dt:dt=""r8"">24312500921768</Timestamp><Current dt:dt=""r8"">0</Current><DateUtc dt:dt=""string"">2023-01-14T09:19:37Z</DateUtc></FrequencyChange></FrequencyChanges></Clock>\n",Wisconsin-1174-3,60.014,1.0.0.257,1,-1306348481,3.0.3.80,3.0.3.80,01-14-2023,1/14/2023 9:19:38 AM,17:19:38,3.0.3.82,1,1.0,1.0,1.0,,,,Practiceploc,List1,2,Button1.png,Button2.png,Button3.png,Button4.png,Redstar2.png,顏色,{button3},1.0,{button3},1.0,33.0,95321.0,0.0,{Button3},924.0,96245.0,,,,,,,2.0,1.0,2.0,PracticeTrialProc,PracticeList,1.0,{button3},1.0,33.0,95321.0,0.0,{Button3},924.0,,,,,,,,,,,,,,,,,,,,,,,,,,,,,,,,,,,,,,
Wisconsin,1174,3,"<?xml version=""1.0""?>\n<Clock xmlns:dt=""urn:schemas-microsoft-com:datatypes""><Description dt:dt=""string"">E-Prime Primary Realtime Clock</Description><StartTime><Timestamp dt:dt=""int"">0</Timestamp><DateUtc dt:dt=""string"">2023-01-14T09:19:37Z</DateUtc></StartTime><FrequencyChanges><FrequencyChange><Frequency dt:dt=""r8"">10000000</Frequency><Timestamp dt:dt=""r8"">24312500921768</Timestamp><Current dt:dt=""r8"">0</Current><DateUtc dt:dt=""string"">2023-01-14T09:19:37Z</DateUtc></FrequencyChange></FrequencyChanges></Clock>\n",Wisconsin-1174-3,60.014,1.0.0.257,1,-1306348481,3.0.3.80,3.0.3.80,01-14-2023,1/14/2023 9:19:38 AM,17:19:38,3.0.3.82,1,1.0,1.0,1.0,,,,Practiceploc,List1,3,Button1.png,Button2.png,Button3.png,Button4.png,Bluetriangle1.png,形狀,{button2},1.0,{button2},9.0,50.0,98837.0,0.0,{Button2},1184.0,100021.0,,,,,,,3.0,1.0,3.0,PracticeTrialProc,PracticeList,1.0,{button2},9.0,50.0,98837.0,0.0,{Button2},1184.0,,,,,,,,,,,,,,,,,,,,,,,,,,,,,,,,,,,,,,
Wisconsin,1174,3,"<?xml version=""1.0""?>\n<Clock xmlns:dt=""urn:schemas-microsoft-com:datatypes""><Description dt:dt=""string"">E-Prime Primary Realtime Clock</Description><StartTime><Timestamp dt:dt=""int"">0</Timestamp><DateUtc dt:dt=""string"">2023-01-14T09:19:37Z</DateUtc></StartTime><FrequencyChanges><FrequencyChange><Frequency dt:dt=""r8"">10000000</Frequency><Timestamp dt:dt=""r8"">24312500921768</Timestamp><Current dt:dt=""r8"">0</Current><DateUtc dt:dt=""string"">2023-01-14T09:19:37Z</DateUtc></FrequencyChange></FrequencyChanges></Clock>\n",Wisconsin-1174-3,60.014,1.0.0.257,1,-1306348481,3.0.3.80,3.0.3.80,01-14-2023,1/14/2023 9:19:38 AM,17:19:38,3.0.3.82,1,1.0,1.0,1.0,,,,Practiceploc,List1,4,Button1.png,Button2.png,Button3.png,Button4.png,greenstar2.png,形狀,{Button4},1.0,{Button4},9.0,34.0,102603.0,0.0,{Button4},1666.0,104269.0,,,,,,,4.0,1.0,4.0,PracticeTrialProc,PracticeList,1.0,{Button4},9.0,34.0,102603.0,0.0,{Button4},1666.0,,,,,,,,,,,,,,,,,,,,,,,,,,,,,,,,,,,,,,
Wisconsin,1174,3,"<?xml version=""1.0""?>\n<Clock xmlns:dt=""urn:schemas-microsoft-com:datatypes""><Description dt:dt=""string"">E-Prime Primary Realtime Clock</Description><StartTime><Timestamp dt:dt=""int"">0</Timestamp><DateUtc dt:dt=""string"">2023-01-14T09:19:37Z</DateUtc></StartTime><FrequencyChanges><FrequencyChange><Frequency dt:dt=""r8"">10000000</Frequency><Timestamp dt:dt=""r8"">24312500921768</Timestamp><Current dt:dt=""r8"">0</Current><DateUtc dt:dt=""string"">2023-01-14T09:19:37Z</DateUtc></FrequencyChange></FrequencyChanges></Clock>\n",Wisconsin-1174-3,60.014,1.0.0.257,1,-1306348481,3.0.3.80,3.0.3.80,01-14-2023,1/14/2023 9:19:38 AM,17:19:38,3.0.3.82,1,1.0,1.0,1.0,,,,Practiceploc,List1,5,Button1.png,Button2.png,Button3.png,Button4.png,BlueCross4.png,圖案數目,{Button2},1.0,{Button2},9.0,34.0,106852.0,0.0,{Button2},1929.0,108781.0,,,,,,,5.0,1.0,5.0,PracticeTrialProc,PracticeList,1.0,{Button2},9.0,34.0,106852.0,0.0,{Button2},1929.0,,,,,,,,,,,,,,,,,,,,,,,,,,,,,,,,,,,,,,
Wisconsin,1174,3,"<?xml version=""1.0""?>\n<Clock xmlns:dt=""urn:schemas-microsoft-com:datatypes""><Description dt:dt=""string"">E-Prime Primary Realtime Clock</Description><StartTime><Timestamp dt:dt=""int"">0</Timestamp><DateUtc dt:dt=""string"">2023-01-14T09:19:37Z</DateUtc></StartTime><FrequencyChanges><FrequencyChange><Frequency dt:dt=""r8"">10000000</Frequency><Timestamp dt:dt=""r8"">24312500921768</Timestamp><Current dt:dt=""r8"">0</Current><DateUtc dt:dt=""string"">2023-01-14T09:19:37Z</DateUtc></FrequencyChange></FrequencyChanges></Clock>\n",Wisconsin-1174-3,60.014,1.0.0.257,1,-1306348481,3.0.3.80,3.0.3.80,01-14-2023,1/14/2023 9:19:38 AM,17:19:38,3.0.3.82,1,1.0,1.0,1.0,,,,Practiceploc,List1,6,Button1.png,Button2.png,Button3.png,Button4.png,yellowcircle2.png,圖案數目,{Button1},1.0,{Button1},12.0,33.0,111367.0,0.0,{Button1},1070.0,112437.0,,,,,,,6.0,1.0,6.0,PracticeTrialProc,PracticeList,1.0,{Button1},12.0,33.0,111367.0,0.0,{Button1},1070.0,,,,,,,,,,,,,,,,,,,,,,,,,,,,,,,,,,,,,,
Wisconsin,1174,3,"<?xml version=""1.0""?>\n<Clock xmlns:dt=""urn:schemas-microsoft-com:datatypes""><Description dt:dt=""string"">E-Prime Primary Realtime Clock</Description><StartTime><Timestamp dt:dt=""int"">0</Timestamp><DateUtc dt:dt=""string"">2023-01-14T09:19:37Z</DateUtc></StartTime><FrequencyChanges><FrequencyChange><Frequency dt:dt=""r8"">10000000</Frequency><Timestamp dt:dt=""r8"">24312500921768</Timestamp><Current dt:dt=""r8"">0</Current><DateUtc dt:dt=""string"">2023-01-14T09:19:37Z</DateUtc></FrequencyChange></FrequencyChanges></Clock>\n",Wisconsin-1174-3,60.014,1.0.0.257,1,-1306348481,3.0.3.80,3.0.3.80,01-14-2023,1/14/2023 9:19:38 AM,17:19:38,3.0.3.82,2,,,,2.0,1.0,1.0,BlockProc,List2,1,,,,,,,,,,,,,,,,,1.0,1.0,1.0,,,,,,,ShapeProc,List3,,,,,,,,,1.0,Button1.png,Button2.png,Button3.png,Button4.png,Bluecross4.png,,,,,,,{Button3},0.0,,,,,,,0.0,TrialProc,ShapeList,2.0,1.0,1.0,,,,1.0,{Button3},2.0,33.0,144176.0,0.0,{Button3},3053.0,Shape
Wisconsin,1174,3,"<?xml version=""1.0""?>\n<Clock xmlns:dt=""urn:schemas-microsoft-com:datatypes""><Description dt:dt=""string"">E-Prime Primary Realtime Clock</Description><StartTime><Timestamp dt:dt=""int"">0</Timestamp><DateUtc dt:dt=""string"">2023-01-14T09:19:37Z</DateUtc></StartTime><FrequencyChanges><FrequencyChange><Frequency dt:dt=""r8"">10000000</Frequency><Timestamp dt:dt=""r8"">24312500921768</Timestamp><Current dt:dt=""r8"">0</Current><DateUtc dt:dt=""string"">2023-01-14T09:19:37Z</DateUtc></FrequencyChange></FrequencyChanges></Clock>\n",Wisconsin-1174-3,60.014,1.0.0.257,1,-1306348481,3.0.3.80,3.0.3.80,01-14-2023,1/14/2023 9:19:38 AM,17:19:38,3.0.3.82,2,,,,2.0,1.0,1.0,BlockProc,List2,1,,,,,,,,,,,,,,,,,1.0,1.0,1.0,,,,,,,ShapeProc,List3,,,,,,,,,2.0,Button1.png,Button2.png,Button3.png,Button4.png,Bluecircle2.png,,,,,,,{Button1},0.0,,,,,,,0.0,TrialProc,ShapeList,1.0,1.0,2.0,,,,1.0,{Button1},10.0,49.0,149824.0,0.0,{Button1},1117.0,Shape
Wisconsin,1174,3,"<?xml version=""1.0""?>\n<Clock xmlns:dt=""urn:schemas-microsoft-com:datatypes""><Description dt:dt=""string"">E-Prime Primary Realtime Clock</Description><StartTime><Timestamp dt:dt=""int"">0</Timestamp><DateUtc dt:dt=""string"">2023-01-14T09:19:37Z</DateUtc></StartTime><FrequencyChanges><FrequencyChange><Frequency dt:dt=""r8"">10000000</Frequency><Timestamp dt:dt=""r8"">24312500921768</Timestamp><Current dt:dt=""r8"">0</Current><DateUtc dt:dt=""string"">2023-01-14T09:19:37Z</DateUtc></FrequencyChange></FrequencyChanges></Clock>\n",Wisconsin-1174-3,60.014,1.0.0.257,1,-1306348481,3.0.3.80,3.0.3.80,01-14-2023,1/14/2023 9:19:38 AM,17:19:38,3.0.3.82,2,,,,2.0,1.0,1.0,BlockProc,List2,1,,,,,,,,,,,,,,,,,1.0,1.0,1.0,,,,,,,ShapeProc,List3,,,,,,,,,3.0,Button1.png,Button2.png,Button3.png,Button4.png,Redcross1.png,,,,,,,{Button3},0.0,,,,,,,0.0,TrialProc,ShapeList,5.0,1.0,3.0,,,,1.0,{Button3},2.0,50.0,153540.0,0.0,{Button3},753.0,Shape
Wisconsin,1174,3,"<?xml version=""1.0""?>\n<Clock xmlns:dt=""urn:schemas-microsoft-com:datatypes""><Description dt:dt=""string"">E-Prime Primary Realtime Clock</Description><StartTime><Timestamp dt:dt=""int"">0</Timestamp><DateUtc dt:dt=""string"">2023-01-14T09:19:37Z</DateUtc></StartTime><FrequencyChanges><FrequencyChange><Frequency dt:dt=""r8"">10000000</Frequency><Timestamp dt:dt=""r8"">24312500921768</Timestamp><Current dt:dt=""r8"">0</Current><DateUtc dt:dt=""string"">2023-01-14T09:19:37Z</DateUtc></FrequencyChange></FrequencyChanges></Clock>\n",Wisconsin-1174-3,60.014,1.0.0.257,1,-1306348481,3.0.3.80,3.0.3.80,01-14-2023,1/14/2023 9:19:38 AM,17:19:38,3.0.3.82,2,,,,2.0,1.0,1.0,BlockProc,List2,1,,,,,,,,,,,,,,,,,1.0,1.0,1.0,,,,,,,ShapeProc,List3,,,,,,,,,4.0,Button1.png,Button2.png,Button3.png,Button4.png,Greencross1.png,,,,,,,{Button3},0.0,,,,,,,0.0,TrialProc,ShapeList,3.0,1.0,4.0,,,,0.0,{Button3},1.0,33.0,156873.0,0.0,{Button1},828.0,Shape
Wisconsin,1174,3,"<?xml version=""1.0""?>\n<Clock xmlns:dt=""urn:schemas-microsoft-com:datatypes""><Description dt:dt=""string"">E-Prime Primary Realtime Clock</Description><StartTime><Timestamp dt:dt=""int"">0</Timestamp><DateUtc dt:dt=""string"">2023-01-14T09:19:37Z</DateUtc></StartTime><FrequencyChanges><FrequencyChange><Frequency dt:dt=""r8"">10000000</Frequency><Timestamp dt:dt=""r8"">24312500921768</Timestamp><Current dt:dt=""r8"">0</Current><DateUtc dt:dt=""string"">2023-01-14T09:19:37Z</DateUtc></FrequencyChange></FrequencyChanges></Clock>\n",Wisconsin-1174-3,60.014,1.0.0.257,1,-1306348481,3.0.3.80,3.0.3.80,01-14-2023,1/14/2023 9:19:38 AM,17:19:38,3.0.3.82,2,,,,2.0,1.0,1.0,BlockProc,List2,1,,,,,,,,,,,,,,,,,1.0,1.0,1.0,,,,,,,ShapeProc,List3,,,,,,,,,5.0,Button1.png,Button2.png,Button3.png,Button4.png,Yellowstar4.png,,,,,,,{Button4},0.0,,,,,,,0.0,TrialProc,ShapeList,10.0,1.0,5.0,,,,0.0,{Button4},2.0,33.0,160288.0,0.0,{Button2},701.0,Shape
Wisconsin,1174,3,"<?xml version=""1.0""?>\n<Clock xmlns:dt=""urn:schemas-microsoft-com:datatypes""><Description dt:dt=""string"">E-Prime Primary Realtime Clock</Description><StartTime><Timestamp dt:dt=""int"">0</Timestamp><DateUtc dt:dt=""string"">2023-01-14T09:19:37Z</DateUtc></StartTime><FrequencyChanges><FrequencyChange><Frequency dt:dt=""r8"">10000000</Frequency><Timestamp dt:dt=""r8"">24312500921768</Timestamp><Current dt:dt=""r8"">0</Current><DateUtc dt:dt=""string"">2023-01-14T09:19:37Z</DateUtc></FrequencyChange></FrequencyChanges></Clock>\n",Wisconsin-1174-3,60.014,1.0.0.257,1,-1306348481,3.0.3.80,3.0.3.80,01-14-2023,1/14/2023 9:19:38 AM,17:19:38,3.0.3.82,2,,,,2.0,1.0,1.0,BlockProc,List2,1,,,,,,,,,,,,,,,,,1.0,1.0,1.0,,,,,,,ShapeProc,List3,,,,,,,,,6.0,Button1.png,Button2.png,Button3.png,Button4.png,Yellowstar1.png,,,,,,,{Button4},0.0,,,,,,,0.0,TrialProc,ShapeList,9.0,1.0,6.0,,,,1.0,{Button4},10.0,33.0,163571.0,0.0,{Button4},938.0,Shape
Wisconsin,1174,3,"<?xml version=""1.0""?>\n<Clock xmlns:dt=""urn:schemas-microsoft-com:datatypes""><Description dt:dt=""string"">E-Prime Primary Realtime Clock</Description><StartTime><Timestamp dt:dt=""int"">0</Timestamp><DateUtc dt:dt=""string"">2023-01-14T09:19:37Z</DateUtc></StartTime><FrequencyChanges><FrequencyChange><Frequency dt:dt=""r8"">10000000</Frequency><Timestamp dt:dt=""r8"">24312500921768</Timestamp><Current dt:dt=""r8"">0</Current><DateUtc dt:dt=""string"">2023-01-14T09:19:37Z</DateUtc></FrequencyChange></FrequencyChanges></Clock>\n",Wisconsin-1174-3,60.014,1.0.0.257,1,-1306348481,3.0.3.80,3.0.3.80,01-14-2023,1/14/2023 9:19:38 AM,17:19:38,3.0.3.82,2,,,,2.0,1.0,1.0,BlockProc,List2,1,,,,,,,,,,,,,,,,,1.0,1.0,1.0,,,,,,,ShapeProc,List3,,,,,,,,,7.0,Button1.png,Button2.png,Button3.png,Button4.png,Greentriangle4.png,,,,,,,{Button2},0.0,,,,,,,0.0,TrialProc,ShapeList,4.0,1.0,7.0,,,,0.0,{Button2},1.0,33.0,167087.0,0.0,{Button4},1638.0,Shape
Wisconsin,1174,3,"<?xml version=""1.0""?>\n<Clock xmlns:dt=""urn:schemas-microsoft-com:datatypes""><Description dt:dt=""string"">E-Prime Primary Realtime Clock</Description><StartTime><Timestamp dt:dt=""int"">0</Timestamp><DateUtc dt:dt=""string"">2023-01-14T09:19:37Z</DateUtc></StartTime><FrequencyChanges><FrequencyChange><Frequency dt:dt=""r8"">10000000</Frequency><Timestamp dt:dt=""r8"">24312500921768</Timestamp><Current dt:dt=""r8"">0</Current><DateUtc dt:dt=""string"">2023-01-14T09:19:37Z</DateUtc></FrequencyChange></FrequencyChanges></Clock>\n",Wisconsin-1174-3,60.014,1.0.0.257,1,-1306348481,3.0.3.80,3.0.3.80,01-14-2023,1/14/2023 9:19:38 AM,17:19:38,3.0.3.82,2,,,,2.0,1.0,1.0,BlockProc,List2,1,,,,,,,,,,,,,,,,,1.0,1.0,1.0,,,,,,,ShapeProc,List3,,,,,,,,,8.0,Button1.png,Button2.png,Button3.png,Button4.png,Redtriangle1.png,,,,,,,{Button2},0.0,,,,,,,0.0,TrialProc,ShapeList,7.0,1.0,8.0,,,,1.0,{Button2},2.0,33.0,171302.0,0.0,{Button2},991.0,Shape
Wisconsin,1174,3,"<?xml version=""1.0""?>\n<Clock xmlns:dt=""urn:schemas-microsoft-com:datatypes""><Description dt:dt=""string"">E-Prime Primary Realtime Clock</Description><StartTime><Timestamp dt:dt=""int"">0</Timestamp><DateUtc dt:dt=""string"">2023-01-14T09:19:37Z</DateUtc></StartTime><FrequencyChanges><FrequencyChange><Frequency dt:dt=""r8"">10000000</Frequency><Timestamp dt:dt=""r8"">24312500921768</Timestamp><Current dt:dt=""r8"">0</Current><DateUtc dt:dt=""string"">2023-01-14T09:19:37Z</DateUtc></FrequencyChange></FrequencyChanges></Clock>\n",Wisconsin-1174-3,60.014,1.0.0.257,1,-1306348481,3.0.3.80,3.0.3.80,01-14-2023,1/14/2023 9:19:38 AM,17:19:38,3.0.3.82,2,,,,2.0,1.0,1.0,BlockProc,List2,1,,,,,,,,,,,,,,,,,1.0,1.0,1.0,,,,,,,ShapeProc,List3,,,,,,,,,9.0,Button1.png,Button2.png,Button3.png,Button4.png,yellowcircle3.png,,,,,,,{Button1},0.0,,,,,,,0.0,TrialProc,ShapeList,8.0,1.0,9.0,,,,1.0,{Button1},9.0,33.0,174868.0,0.0,{Button1},1521.0,Shape
Wisconsin,1174,3,"<?xml version=""1.0""?>\n<Clock xmlns:dt=""urn:schemas-microsoft-com:datatypes""><Description dt:dt=""string"">E-Prime Primary Realtime Clock</Description><StartTime><Timestamp dt:dt=""int"">0</Timestamp><DateUtc dt:dt=""string"">2023-01-14T09:19:37Z</DateUtc></StartTime><FrequencyChanges><FrequencyChange><Frequency dt:dt=""r8"">10000000</Frequency><Timestamp dt:dt=""r8"">24312500921768</Timestamp><Current dt:dt=""r8"">0</Current><DateUtc dt:dt=""string"">2023-01-14T09:19:37Z</DateUtc></FrequencyChange></FrequencyChanges></Clock>\n",Wisconsin-1174-3,60.014,1.0.0.257,1,-1306348481,3.0.3.80,3.0.3.80,01-14-2023,1/14/2023 9:19:38 AM,17:19:38,3.0.3.82,2,,,,2.0,1.0,1.0,BlockProc,List2,1,,,,,,,,,,,,,,,,,1.0,1.0,1.0,,,,,,,ShapeProc,List3,,,,,,,,,10.0,Button1.png,Button2.png,Button3.png,Button4.png,Redcross4.png,,,,,,,{Button3},0.0,,,,,,,0.0,TrialProc,ShapeList,6.0,1.0,10.0,,,,1.0,{Button3},2.0,33.0,178967.0,0.0,{Button3},894.0,Shape
Wisconsin,1174,3,"<?xml version=""1.0""?>\n<Clock xmlns:dt=""urn:schemas-microsoft-com:datatypes""><Description dt:dt=""string"">E-Prime Primary Realtime Clock</Description><StartTime><Timestamp dt:dt=""int"">0</Timestamp><DateUtc dt:dt=""string"">2023-01-14T09:19:37Z</DateUtc></StartTime><FrequencyChanges><FrequencyChange><Frequency dt:dt=""r8"">10000000</Frequency><Timestamp dt:dt=""r8"">24312500921768</Timestamp><Current dt:dt=""r8"">0</Current><DateUtc dt:dt=""string"">2023-01-14T09:19:37Z</DateUtc></FrequencyChange></FrequencyChanges></Clock>\n",Wisconsin-1174-3,60.014,1.0.0.257,1,-1306348481,3.0.3.80,3.0.3.80,01-14-2023,1/14/2023 9:19:38 AM,17:19:38,3.0.3.82,2,,,,3.0,1.0,2.0,BlockProc,List2,2,,,,,,,,,,,,,,,,,1.0,1.0,1.0,,,,,,,NumberProc,List3,,,,,,,,,1.0,Button1.png,Button2.png,Button3.png,Button4.png,Bluecircle4.png,,,,,,,{Button2},0.0,1.0,1.0,1.0,,,,0.0,TrialProc,NumberList,,,,,,,1.0,{Button2},10.0,33.0,182433.0,0.0,{Button2},932.0,number
Wisconsin,1174,3,"<?xml version=""1.0""?>\n<Clock xmlns:dt=""urn:schemas-microsoft-com:datatypes""><Description dt:dt=""string"">E-Prime Primary Realtime Clock</Description><StartTime><Timestamp dt:dt=""int"">0</Timestamp><DateUtc dt:dt=""string"">2023-01-14T09:19:37Z</DateUtc></StartTime><FrequencyChanges><FrequencyChange><Frequency dt:dt=""r8"">10000000</Frequency><Timestamp dt:dt=""r8"">24312500921768</Timestamp><Current dt:dt=""r8"">0</Current><DateUtc dt:dt=""string"">2023-01-14T09:19:37Z</DateUtc></FrequencyChange></FrequencyChanges></Clock>\n",Wisconsin-1174-3,60.014,1.0.0.257,1,-1306348481,3.0.3.80,3.0.3.80,01-14-2023,1/14/2023 9:19:38 AM,17:19:38,3.0.3.82,2,,,,3.0,1.0,2.0,BlockProc,List2,2,,,,,,,,,,,,,,,,,1.0,1.0,1.0,,,,,,,NumberProc,List3,,,,,,,,,2.0,Button1.png,Button2.png,Button3.png,Button4.png,Yellowcross3.png,,,,,,,{Button3},0.0,10.0,1.0,2.0,,,,0.0,TrialProc,NumberList,,,,,,,1.0,{Button3},10.0,33.0,185949.0,0.0,{Button3},872.0,number
Wisconsin,1174,3,"<?xml version=""1.0""?>\n<Clock xmlns:dt=""urn:schemas-microsoft-com:datatypes""><Description dt:dt=""string"">E-Prime Primary Realtime Clock</Description><StartTime><Timestamp dt:dt=""int"">0</Timestamp><DateUtc dt:dt=""string"">2023-01-14T09:19:37Z</DateUtc></StartTime><FrequencyChanges><FrequencyChange><Frequency dt:dt=""r8"">10000000</Frequency><Timestamp dt:dt=""r8"">24312500921768</Timestamp><Current dt:dt=""r8"">0</Current><DateUtc dt:dt=""string"">2023-01-14T09:19:37Z</DateUtc></FrequencyChange></FrequencyChanges></Clock>\n",Wisconsin-1174-3,60.014,1.0.0.257,1,-1306348481,3.0.3.80,3.0.3.80,01-14-2023,1/14/2023 9:19:38 AM,17:19:38,3.0.3.82,2,,,,3.0,1.0,2.0,BlockProc,List2,2,,,,,,,,,,,,,,,,,1.0,1.0,1.0,,,,,,,NumberProc,List3,,,,,,,,,3.0,Button1.png,Button2.png,Button3.png,Button4.png,Redstar2.png,,,,,,,{Button1},0.0,7.0,1.0,3.0,,,,0.0,TrialProc,NumberList,,,,,,,0.0,{Button1},10.0,33.0,189398.0,0.0,{Button4},1127.0,number
Wisconsin,1174,3,"<?xml version=""1.0""?>\n<Clock xmlns:dt=""urn:schemas-microsoft-com:datatypes""><Description dt:dt=""string"">E-Prime Primary Realtime Clock</Description><StartTime><Timestamp dt:dt=""int"">0</Timestamp><DateUtc dt:dt=""string"">2023-01-14T09:19:37Z</DateUtc></StartTime><FrequencyChanges><FrequencyChange><Frequency dt:dt=""r8"">10000000</Frequency><Timestamp dt:dt=""r8"">24312500921768</Timestamp><Current dt:dt=""r8"">0</Current><DateUtc dt:dt=""string"">2023-01-14T09:19:37Z</DateUtc></FrequencyChange></FrequencyChanges></Clock>\n",Wisconsin-1174-3,60.014,1.0.0.257,1,-1306348481,3.0.3.80,3.0.3.80,01-14-2023,1/14/2023 9:19:38 AM,17:19:38,3.0.3.82,2,,,,3.0,1.0,2.0,BlockProc,List2,2,,,,,,,,,,,,,,,,,1.0,1.0,1.0,,,,,,,NumberProc,List3,,,,,,,,,4.0,Button1.png,Button2.png,Button3.png,Button4.png,Yellowcross1.png,,,,,,,{Button4},0.0,9.0,1.0,4.0,,,,0.0,TrialProc,NumberList,,,,,,,0.0,{Button4},2.0,33.0,193097.0,0.0,{Button3},1292.0,number
Wisconsin,1174,3,"<?xml version=""1.0""?>\n<Clock xmlns:dt=""urn:schemas-microsoft-com:datatypes""><Description dt:dt=""string"">E-Prime Primary Realtime Clock</Description><StartTime><Timestamp dt:dt=""int"">0</Timestamp><DateUtc dt:dt=""string"">2023-01-14T09:19:37Z</DateUtc></StartTime><FrequencyChanges><FrequencyChange><Frequency dt:dt=""r8"">10000000</Frequency><Timestamp dt:dt=""r8"">24312500921768</Timestamp><Current dt:dt=""r8"">0</Current><DateUtc dt:dt=""string"">2023-01-14T09:19:37Z</DateUtc></FrequencyChange></FrequencyChanges></Clock>\n",Wisconsin-1174-3,60.014,1.0.0.257,1,-1306348481,3.0.3.80,3.0.3.80,01-14-2023,1/14/2023 9:19:38 AM,17:19:38,3.0.3.82,2,,,,3.0,1.0,2.0,BlockProc,List2,2,,,,,,,,,,,,,,,,,1.0,1.0,1.0,,,,,,,NumberProc,List3,,,,,,,,,5.0,Button1.png,Button2.png,Button3.png,Button4.png,Greencircle4.png,,,,,,,{Button2},0.0,4.0,1.0,5.0,,,,0.0,TrialProc,NumberList,,,,,,,1.0,{Button2},9.0,33.0,196963.0,0.0,{Button2},794.0,number
Wisconsin,1174,3,"<?xml version=""1.0""?>\n<Clock xmlns:dt=""urn:schemas-microsoft-com:datatypes""><Description dt:dt=""string"">E-Prime Primary Realtime Clock</Description><StartTime><Timestamp dt:dt=""int"">0</Timestamp><DateUtc dt:dt=""string"">2023-01-14T09:19:37Z</DateUtc></StartTime><FrequencyChanges><FrequencyChange><Frequency dt:dt=""r8"">10000000</Frequency><Timestamp dt:dt=""r8"">24312500921768</Timestamp><Current dt:dt=""r8"">0</Current><DateUtc dt:dt=""string"">2023-01-14T09:19:37Z</DateUtc></FrequencyChange></FrequencyChanges></Clock>\n",Wisconsin-1174-3,60.014,1.0.0.257,1,-1306348481,3.0.3.80,3.0.3.80,01-14-2023,1/14/2023 9:19:38 AM,17:19:38,3.0.3.82,2,,,,3.0,1.0,2.0,BlockProc,List2,2,,,,,,,,,,,,,,,,,1.0,1.0,1.0,,,,,,,NumberProc,List3,,,,,,,,,6.0,Button1.png,Button2.png,Button3.png,Button4.png,Greencross3.png,,,,,,,{Button3},0.0,5.0,1.0,6.0,,,,0.0,TrialProc,NumberList,,,,,,,1.0,{Button3},10.0,33.0,200329.0,0.0,{Button3},1348.0,number
Wisconsin,1174,3,"<?xml version=""1.0""?>\n<Clock xmlns:dt=""urn:schemas-microsoft-com:datatypes""><Description dt:dt=""string"">E-Prime Primary Realtime Clock</Description><StartTime><Timestamp dt:dt=""int"">0</Timestamp><DateUtc dt:dt=""string"">2023-01-14T09:19:37Z</DateUtc></StartTime><FrequencyChanges><FrequencyChange><Frequency dt:dt=""r8"">10000000</Frequency><Timestamp dt:dt=""r8"">24312500921768</Timestamp><Current dt:dt=""r8"">0</Current><DateUtc dt:dt=""string"">2023-01-14T09:19:37Z</DateUtc></FrequencyChange></FrequencyChanges></Clock>\n",Wisconsin-1174-3,60.014,1.0.0.257,1,-1306348481,3.0.3.80,3.0.3.80,01-14-2023,1/14/2023 9:19:38 AM,17:19:38,3.0.3.82,2,,,,3.0,1.0,2.0,BlockProc,List2,2,,,,,,,,,,,,,,,,,1.0,1.0,1.0,,,,,,,NumberProc,List3,,,,,,,,,7.0,Button1.png,Button2.png,Button3.png,Button4.png,Bluestar2.png,,,,,,,{Button1},0.0,2.0,1.0,7.0,,,,0.0,TrialProc,NumberList,,,,,,,0.0,{Button1},10.0,33.0,204261.0,0.0,{Button4},1472.0,number
Wisconsin,1174,3,"<?xml version=""1.0""?>\n<Clock xmlns:dt=""urn:schemas-microsoft-com:datatypes""><Description dt:dt=""string"">E-Prime Primary Realtime Clock</Description><StartTime><Timestamp dt:dt=""int"">0</Timestamp><DateUtc dt:dt=""string"">2023-01-14T09:19:37Z</DateUtc></StartTime><FrequencyChanges><FrequencyChange><Frequency dt:dt=""r8"">10000000</Frequency><Timestamp dt:dt=""r8"">24312500921768</Timestamp><Current dt:dt=""r8"">0</Current><DateUtc dt:dt=""string"">2023-01-14T09:19:37Z</DateUtc></FrequencyChange></FrequencyChanges></Clock>\n",Wisconsin-1174-3,60.014,1.0.0.257,1,-1306348481,3.0.3.80,3.0.3.80,01-14-2023,1/14/2023 9:19:38 AM,17:19:38,3.0.3.82,2,,,,3.0,1.0,2.0,BlockProc,List2,2,,,,,,,,,,,,,,,,,1.0,1.0,1.0,,,,,,,NumberProc,List3,,,,,,,,,8.0,Button1.png,Button2.png,Button3.png,Button4.png,Redcircle4.png,,,,,,,{Button2},0.0,6.0,1.0,8.0,,,,0.0,TrialProc,NumberList,,,,,,,0.0,{Button2},9.0,33.0,208310.0,0.0,{Button1},1319.0,number
Wisconsin,1174,3,"<?xml version=""1.0""?>\n<Clock xmlns:dt=""urn:schemas-microsoft-com:datatypes""><Description dt:dt=""string"">E-Prime Primary Realtime Clock</Description><StartTime><Timestamp dt:dt=""int"">0</Timestamp><DateUtc dt:dt=""string"">2023-01-14T09:19:37Z</DateUtc></StartTime><FrequencyChanges><FrequencyChange><Frequency dt:dt=""r8"">10000000</Frequency><Timestamp dt:dt=""r8"">24312500921768</Timestamp><Current dt:dt=""r8"">0</Current><DateUtc dt:dt=""string"">2023-01-14T09:19:37Z</DateUtc></FrequencyChange></FrequencyChanges></Clock>\n",Wisconsin-1174-3,60.014,1.0.0.257,1,-1306348481,3.0.3.80,3.0.3.80,01-14-2023,1/14/2023 9:19:38 AM,17:19:38,3.0.3.82,2,,,,3.0,1.0,2.0,BlockProc,List2,2,,,,,,,,,,,,,,,,,1.0,1.0,1.0,,,,,,,NumberProc,List3,,,,,,,,,9.0,Button1.png,Button2.png,Button3.png,Button4.png,Redtriangle4.png,,,,,,,{Button2},0.0,8.0,1.0,9.0,,,,0.0,TrialProc,NumberList,,,,,,,1.0,{Button2},10.0,33.0,212209.0,0.0,{Button2},940.0,number
Wisconsin,1174,3,"<?xml version=""1.0""?>\n<Clock xmlns:dt=""urn:schemas-microsoft-com:datatypes""><Description dt:dt=""string"">E-Prime Primary Realtime Clock</Description><StartTime><Timestamp dt:dt=""int"">0</Timestamp><DateUtc dt:dt=""string"">2023-01-14T09:19:37Z</DateUtc></StartTime><FrequencyChanges><FrequencyChange><Frequency dt:dt=""r8"">10000000</Frequency><Timestamp dt:dt=""r8"">24312500921768</Timestamp><Current dt:dt=""r8"">0</Current><DateUtc dt:dt=""string"">2023-01-14T09:19:37Z</DateUtc></FrequencyChange></FrequencyChanges></Clock>\n",Wisconsin-1174-3,60.014,1.0.0.257,1,-1306348481,3.0.3.80,3.0.3.80,01-14-2023,1/14/2023 9:19:38 AM,17:19:38,3.0.3.82,2,,,,3.0,1.0,2.0,BlockProc,List2,2,,,,,,,,,,,,,,,,,1.0,1.0,1.0,,,,,,,NumberProc,List3,,,,,,,,,10.0,Button1.png,Button2.png,Button3.png,Button4.png,Bluetriangle1.png,,,,,,,{Button4},0.0,3.0,1.0,10.0,,,,0.0,TrialProc,NumberList,,,,,,,0.0,{Button4},1.0,33.0,215725.0,0.0,{Button2},1144.0,number
Wisconsin,1174,3,"<?xml version=""1.0""?>\n<Clock xmlns:dt=""urn:schemas-microsoft-com:datatypes""><Description dt:dt=""string"">E-Prime Primary Realtime Clock</Description><StartTime><Timestamp dt:dt=""int"">0</Timestamp><DateUtc dt:dt=""string"">2023-01-14T09:19:37Z</DateUtc></StartTime><FrequencyChanges><FrequencyChange><Frequency dt:dt=""r8"">10000000</Frequency><Timestamp dt:dt=""r8"">24312500921768</Timestamp><Current dt:dt=""r8"">0</Current><DateUtc dt:dt=""string"">2023-01-14T09:19:37Z</DateUtc></FrequencyChange></FrequencyChanges></Clock>\n",Wisconsin-1174-3,60.014,1.0.0.257,1,-1306348481,3.0.3.80,3.0.3.80,01-14-2023,1/14/2023 9:19:38 AM,17:19:38,3.0.3.82,2,,,,1.0,1.0,3.0,BlockProc,List2,3,,,,,,,,,,,,,,,,,1.0,1.0,1.0,,,,,,,ColorProc,List3,,,,,,,,,1.0,BUTTON1.png,BUTTON2.PNG,BUTTON3.png,BUTTON4.png,greencircle3.png,4.0,1.0,1.0,,,,{button1},0.0,,,,,,,0.0,TrialProc,ColorList,,,,,,,0.0,{button1},1.0,33.0,219441.0,0.0,{Button3},1188.0,Color
Wisconsin,1174,3,"<?xml version=""1.0""?>\n<Clock xmlns:dt=""urn:schemas-microsoft-com:datatypes""><Description dt:dt=""string"">E-Prime Primary Realtime Clock</Description><StartTime><Timestamp dt:dt=""int"">0</Timestamp><DateUtc dt:dt=""string"">2023-01-14T09:19:37Z</DateUtc></StartTime><FrequencyChanges><FrequencyChange><Frequency dt:dt=""r8"">10000000</Frequency><Timestamp dt:dt=""r8"">24312500921768</Timestamp><Current dt:dt=""r8"">0</Current><DateUtc dt:dt=""string"">2023-01-14T09:19:37Z</DateUtc></FrequencyChange></FrequencyChanges></Clock>\n",Wisconsin-1174-3,60.014,1.0.0.257,1,-1306348481,3.0.3.80,3.0.3.80,01-14-2023,1/14/2023 9:19:38 AM,17:19:38,3.0.3.82,2,,,,1.0,1.0,3.0,BlockProc,List2,3,,,,,,,,,,,,,,,,,1.0,1.0,1.0,,,,,,,ColorProc,List3,,,,,,,,,2.0,BUTTON1.png,BUTTON2.PNG,BUTTON3.png,BUTTON4.png,yellowstar3.png,10.0,1.0,2.0,,,,{button2},0.0,,,,,,,0.0,TrialProc,ColorList,,,,,,,0.0,{button2},2.0,33.0,223206.0,0.0,{Button4},1535.0,Color
Wisconsin,1174,3,"<?xml version=""1.0""?>\n<Clock xmlns:dt=""urn:schemas-microsoft-com:datatypes""><Description dt:dt=""string"">E-Prime Primary Realtime Clock</Description><StartTime><Timestamp dt:dt=""int"">0</Timestamp><DateUtc dt:dt=""string"">2023-01-14T09:19:37Z</DateUtc></StartTime><FrequencyChanges><FrequencyChange><Frequency dt:dt=""r8"">10000000</Frequency><Timestamp dt:dt=""r8"">24312500921768</Timestamp><Current dt:dt=""r8"">0</Current><DateUtc dt:dt=""string"">2023-01-14T09:19:37Z</DateUtc></FrequencyChange></FrequencyChanges></Clock>\n",Wisconsin-1174-3,60.014,1.0.0.257,1,-1306348481,3.0.3.80,3.0.3.80,01-14-2023,1/14/2023 9:19:38 AM,17:19:38,3.0.3.82,2,,,,1.0,1.0,3.0,BlockProc,List2,3,,,,,,,,,,,,,,,,,1.0,1.0,1.0,,,,,,,ColorProc,List3,,,,,,,,,3.0,BUTTON1.png,BUTTON2.PNG,BUTTON3.png,BUTTON4.png,bluecircle1.png,1.0,1.0,3.0,,,,{button4},0.0,,,,,,,0.0,TrialProc,ColorList,,,,,,,0.0,{button4},10.0,33.0,227322.0,0.0,{Button1},971.0,Color
Wisconsin,1174,3,"<?xml version=""1.0""?>\n<Clock xmlns:dt=""urn:schemas-microsoft-com:datatypes""><Description dt:dt=""string"">E-Prime Primary Realtime Clock</Description><StartTime><Timestamp dt:dt=""int"">0</Timestamp><DateUtc dt:dt=""string"">2023-01-14T09:19:37Z</DateUtc></StartTime><FrequencyChanges><FrequencyChange><Frequency dt:dt=""r8"">10000000</Frequency><Timestamp dt:dt=""r8"">24312500921768</Timestamp><Current dt:dt=""r8"">0</Current><DateUtc dt:dt=""string"">2023-01-14T09:19:37Z</DateUtc></FrequencyChange></FrequencyChanges></Clock>\n",Wisconsin-1174-3,60.014,1.0.0.257,1,-1306348481,3.0.3.80,3.0.3.80,01-14-2023,1/14/2023 9:19:38 AM,17:19:38,3.0.3.82,2,,,,1.0,1.0,3.0,BlockProc,List2,3,,,,,,,,,,,,,,,,,1.0,1.0,1.0,,,,,,,ColorProc,List3,,,,,,,,,4.0,BUTTON1.png,BUTTON2.PNG,BUTTON3.png,BUTTON4.png,redcircle3.png,8.0,1.0,4.0,,,,{button3},0.0,,,,,,,0.0,TrialProc,ColorList,,,,,,,1.0,{button3},2.0,33.0,230871.0,0.0,{Button3},1102.0,Color
Wisconsin,1174,3,"<?xml version=""1.0""?>\n<Clock xmlns:dt=""urn:schemas-microsoft-com:datatypes""><Description dt:dt=""string"">E-Prime Primary Realtime Clock</Description><StartTime><Timestamp dt:dt=""int"">0</Timestamp><DateUtc dt:dt=""string"">2023-01-14T09:19:37Z</DateUtc></StartTime><FrequencyChanges><FrequencyChange><Frequency dt:dt=""r8"">10000000</Frequency><Timestamp dt:dt=""r8"">24312500921768</Timestamp><Current dt:dt=""r8"">0</Current><DateUtc dt:dt=""string"">2023-01-14T09:19:37Z</DateUtc></FrequencyChange></FrequencyChanges></Clock>\n",Wisconsin-1174-3,60.014,1.0.0.257,1,-1306348481,3.0.3.80,3.0.3.80,01-14-2023,1/14/2023 9:19:38 AM,17:19:38,3.0.3.82,2,,,,1.0,1.0,3.0,BlockProc,List2,3,,,,,,,,,,,,,,,,,1.0,1.0,1.0,,,,,,,ColorProc,List3,,,,,,,,,5.0,BUTTON1.png,BUTTON2.PNG,BUTTON3.png,BUTTON4.png,bluecross2.png,2.0,1.0,5.0,,,,{button4},0.0,,,,,,,0.0,TrialProc,ColorList,,,,,,,1.0,{button4},2.0,33.0,234554.0,0.0,{Button4},1323.0,Color
Wisconsin,1174,3,"<?xml version=""1.0""?>\n<Clock xmlns:dt=""urn:schemas-microsoft-com:datatypes""><Description dt:dt=""string"">E-Prime Primary Realtime Clock</Description><StartTime><Timestamp dt:dt=""int"">0</Timestamp><DateUtc dt:dt=""string"">2023-01-14T09:19:37Z</DateUtc></StartTime><FrequencyChanges><FrequencyChange><Frequency dt:dt=""r8"">10000000</Frequency><Timestamp dt:dt=""r8"">24312500921768</Timestamp><Current dt:dt=""r8"">0</Current><DateUtc dt:dt=""string"">2023-01-14T09:19:37Z</DateUtc></FrequencyChange></FrequencyChanges></Clock>\n",Wisconsin-1174-3,60.014,1.0.0.257,1,-1306348481,3.0.3.80,3.0.3.80,01-14-2023,1/14/2023 9:19:38 AM,17:19:38,3.0.3.82,2,,,,1.0,1.0,3.0,BlockProc,List2,3,,,,,,,,,,,,,,,,,1.0,1.0,1.0,,,,,,,ColorProc,List3,,,,,,,,,6.0,BUTTON1.png,BUTTON2.PNG,BUTTON3.png,BUTTON4.png,greentriangle3.png,7.0,1.0,6.0,,,,{button1},0.0,,,,,,,0.0,TrialProc,ColorList,,,,,,,0.0,{button1},9.0,33.0,238453.0,0.0,{Button2},1600.0,Color
Wisconsin,1174,3,"<?xml version=""1.0""?>\n<Clock xmlns:dt=""urn:schemas-microsoft-com:datatypes""><Description dt:dt=""string"">E-Prime Primary Realtime Clock</Description><StartTime><Timestamp dt:dt=""int"">0</Timestamp><DateUtc dt:dt=""string"">2023-01-14T09:19:37Z</DateUtc></StartTime><FrequencyChanges><FrequencyChange><Frequency dt:dt=""r8"">10000000</Frequency><Timestamp dt:dt=""r8"">24312500921768</Timestamp><Current dt:dt=""r8"">0</Current><DateUtc dt:dt=""string"">2023-01-14T09:19:37Z</DateUtc></FrequencyChange></FrequencyChanges></Clock>\n",Wisconsin-1174-3,60.014,1.0.0.257,1,-1306348481,3.0.3.80,3.0.3.80,01-14-2023,1/14/2023 9:19:38 AM,17:19:38,3.0.3.82,2,,,,1.0,1.0,3.0,BlockProc,List2,3,,,,,,,,,,,,,,,,,1.0,1.0,1.0,,,,,,,ColorProc,List3,,,,,,,,,7.0,BUTTON1.png,BUTTON2.PNG,BUTTON3.png,BUTTON4.png,yellowcircle1.png,9.0,1.0,7.0,,,,{button2},0.0,,,,,,,0.0,TrialProc,ColorList,,,,,,,0.0,{button2},11.0,33.0,242635.0,0.0,{Button1},1706.0,Color
Wisconsin,1174,3,"<?xml version=""1.0""?>\n<Clock xmlns:dt=""urn:schemas-microsoft-com:datatypes""><Description dt:dt=""string"">E-Prime Primary Realtime Clock</Description><StartTime><Timestamp dt:dt=""int"">0</Timestamp><DateUtc dt:dt=""string"">2023-01-14T09:19:37Z</DateUtc></StartTime><FrequencyChanges><FrequencyChange><Frequency dt:dt=""r8"">10000000</Frequency><Timestamp dt:dt=""r8"">24312500921768</Timestamp><Current dt:dt=""r8"">0</Current><DateUtc dt:dt=""string"">2023-01-14T09:19:37Z</DateUtc></FrequencyChange></FrequencyChanges></Clock>\n",Wisconsin-1174-3,60.014,1.0.0.257,1,-1306348481,3.0.3.80,3.0.3.80,01-14-2023,1/14/2023 9:19:38 AM,17:19:38,3.0.3.82,2,,,,1.0,1.0,3.0,BlockProc,List2,3,,,,,,,,,,,,,,,,,1.0,1.0,1.0,,,,,,,ColorProc,List3,,,,,,,,,8.0,BUTTON1.png,BUTTON2.PNG,BUTTON3.png,BUTTON4.png,bluetriangle3.png,3.0,1.0,8.0,,,,{button4},0.0,,,,,,,0.0,TrialProc,ColorList,,,,,,,0.0,{button4},2.0,33.0,246917.0,0.0,{Button3},1136.0,Color
Wisconsin,1174,3,"<?xml version=""1.0""?>\n<Clock xmlns:dt=""urn:schemas-microsoft-com:datatypes""><Description dt:dt=""string"">E-Prime Primary Realtime Clock</Description><StartTime><Timestamp dt:dt=""int"">0</Timestamp><DateUtc dt:dt=""string"">2023-01-14T09:19:37Z</DateUtc></StartTime><FrequencyChanges><FrequencyChange><Frequency dt:dt=""r8"">10000000</Frequency><Timestamp dt:dt=""r8"">24312500921768</Timestamp><Current dt:dt=""r8"">0</Current><DateUtc dt:dt=""string"">2023-01-14T09:19:37Z</DateUtc></FrequencyChange></FrequencyChanges></Clock>\n",Wisconsin-1174-3,60.014,1.0.0.257,1,-1306348481,3.0.3.80,3.0.3.80,01-14-2023,1/14/2023 9:19:38 AM,17:19:38,3.0.3.82,2,,,,1.0,1.0,3.0,BlockProc,List2,3,,,,,,,,,,,,,,,,,1.0,1.0,1.0,,,,,,,ColorProc,List3,,,,,,,,,9.0,BUTTON1.png,BUTTON2.PNG,BUTTON3.png,BUTTON4.png,greenstar2.png,5.0,1.0,9.0,,,,{button1},0.0,,,,,,,0.0,TrialProc,ColorList,,,,,,,0.0,{button1},1.0,33.0,250633.0,0.0,{Button4},3116.0,Color
Wisconsin,1174,3,"<?xml version=""1.0""?>\n<Clock xmlns:dt=""urn:schemas-microsoft-com:datatypes""><Description dt:dt=""string"">E-Prime Primary Realtime Clock</Description><StartTime><Timestamp dt:dt=""int"">0</Timestamp><DateUtc dt:dt=""string"">2023-01-14T09:19:37Z</DateUtc></StartTime><FrequencyChanges><FrequencyChange><Frequency dt:dt=""r8"">10000000</Frequency><Timestamp dt:dt=""r8"">24312500921768</Timestamp><Current dt:dt=""r8"">0</Current><DateUtc dt:dt=""string"">2023-01-14T09:19:37Z</DateUtc></FrequencyChange></FrequencyChanges></Clock>\n",Wisconsin-1174-3,60.014,1.0.0.257,1,-1306348481,3.0.3.80,3.0.3.80,01-14-2023,1/14/2023 9:19:38 AM,17:19:38,3.0.3.82,2,,,,1.0,1.0,3.0,BlockProc,List2,3,,,,,,,,,,,,,,,,,1.0,1.0,1.0,,,,,,,ColorProc,List3,,,,,,,,,10.0,BUTTON1.png,BUTTON2.PNG,BUTTON3.png,BUTTON4.png,greentriangle1.png,6.0,1.0,10.0,,,,{button1},0.0,,,,,,,0.0,TrialProc,ColorList,,,,,,,0.0,{button1},11.0,50.0,256349.0,0.0,{Button2},1240.0,Color
Wisconsin,1174,3,"<?xml version=""1.0""?>\n<Clock xmlns:dt=""urn:schemas-microsoft-com:datatypes""><Description dt:dt=""string"">E-Prime Primary Realtime Clock</Description><StartTime><Timestamp dt:dt=""int"">0</Timestamp><DateUtc dt:dt=""string"">2023-01-14T09:19:37Z</DateUtc></StartTime><FrequencyChanges><FrequencyChange><Frequency dt:dt=""r8"">10000000</Frequency><Timestamp dt:dt=""r8"">24312500921768</Timestamp><Current dt:dt=""r8"">0</Current><DateUtc dt:dt=""string"">2023-01-14T09:19:37Z</DateUtc></FrequencyChange></FrequencyChanges></Clock>\n",Wisconsin-1174-3,60.014,1.0.0.257,1,-1306348481,3.0.3.80,3.0.3.80,01-14-2023,1/14/2023 9:19:38 AM,17:19:38,3.0.3.82,3,,,,,,,BlockProc2,List2,1,,,,,,,,,,,,,,,,,2.0,1.0,2.0,3.0,1.0,1.0,,,,NumberProc2,List4,,,,,,,,,1.0,Button1.png,Button2.png,Button3.png,Button4.png,Bluecross3.png,,,,,,,{button3},0.0,,,,1.0,1.0,1.0,0.0,TrialProc,NumberList2,,,,,,,1.0,{button3},10.0,33.0,260164.0,0.0,{Button3},945.0,number
Wisconsin,1174,3,"<?xml version=""1.0""?>\n<Clock xmlns:dt=""urn:schemas-microsoft-com:datatypes""><Description dt:dt=""string"">E-Prime Primary Realtime Clock</Description><StartTime><Timestamp dt:dt=""int"">0</Timestamp><DateUtc dt:dt=""string"">2023-01-14T09:19:37Z</DateUtc></StartTime><FrequencyChanges><FrequencyChange><Frequency dt:dt=""r8"">10000000</Frequency><Timestamp dt:dt=""r8"">24312500921768</Timestamp><Current dt:dt=""r8"">0</Current><DateUtc dt:dt=""string"">2023-01-14T09:19:37Z</DateUtc></FrequencyChange></FrequencyChanges></Clock>\n",Wisconsin-1174-3,60.014,1.0.0.257,1,-1306348481,3.0.3.80,3.0.3.80,01-14-2023,1/14/2023 9:19:38 AM,17:19:38,3.0.3.82,3,,,,,,,BlockProc2,List2,1,,,,,,,,,,,,,,,,,2.0,1.0,2.0,3.0,1.0,1.0,,,,NumberProc2,List4,,,,,,,,,2.0,Button1.png,Button2.png,Button3.png,Button4.png,Bluestar4.png,,,,,,,{button2},0.0,,,,2.0,1.0,2.0,0.0,TrialProc,NumberList2,,,,,,,0.0,{button2},10.0,34.0,263697.0,0.0,{Button4},1356.0,number
Wisconsin,1174,3,"<?xml version=""1.0""?>\n<Clock xmlns:dt=""urn:schemas-microsoft-com:datatypes""><Description dt:dt=""string"">E-Prime Primary Realtime Clock</Description><StartTime><Timestamp dt:dt=""int"">0</Timestamp><DateUtc dt:dt=""string"">2023-01-14T09:19:37Z</DateUtc></StartTime><FrequencyChanges><FrequencyChange><Frequency dt:dt=""r8"">10000000</Frequency><Timestamp dt:dt=""r8"">24312500921768</Timestamp><Current dt:dt=""r8"">0</Current><DateUtc dt:dt=""string"">2023-01-14T09:19:37Z</DateUtc></FrequencyChange></FrequencyChanges></Clock>\n",Wisconsin-1174-3,60.014,1.0.0.257,1,-1306348481,3.0.3.80,3.0.3.80,01-14-2023,1/14/2023 9:19:38 AM,17:19:38,3.0.3.82,3,,,,,,,BlockProc2,List2,1,,,,,,,,,,,,,,,,,2.0,1.0,2.0,3.0,1.0,1.0,,,,NumberProc2,List4,,,,,,,,,3.0,Button1.png,Button2.png,Button3.png,Button4.png,Bluetriangle4.png,,,,,,,{button2},0.0,,,,3.0,1.0,3.0,0.0,TrialProc,NumberList2,,,,,,,1.0,{button2},2.0,33.0,267629.0,0.0,{Button2},1080.0,number
Wisconsin,1174,3,"<?xml version=""1.0""?>\n<Clock xmlns:dt=""urn:schemas-microsoft-com:datatypes""><Description dt:dt=""string"">E-Prime Primary Realtime Clock</Description><StartTime><Timestamp dt:dt=""int"">0</Timestamp><DateUtc dt:dt=""string"">2023-01-14T09:19:37Z</DateUtc></StartTime><FrequencyChanges><FrequencyChange><Frequency dt:dt=""r8"">10000000</Frequency><Timestamp dt:dt=""r8"">24312500921768</Timestamp><Current dt:dt=""r8"">0</Current><DateUtc dt:dt=""string"">2023-01-14T09:19:37Z</DateUtc></FrequencyChange></FrequencyChanges></Clock>\n",Wisconsin-1174-3,60.014,1.0.0.257,1,-1306348481,3.0.3.80,3.0.3.80,01-14-2023,1/14/2023 9:19:38 AM,17:19:38,3.0.3.82,3,,,,,,,BlockProc2,List2,1,,,,,,,,,,,,,,,,,2.0,1.0,2.0,3.0,1.0,1.0,,,,NumberProc2,List4,,,,,,,,,4.0,Button1.png,Button2.png,Button3.png,Button4.png,Greencross2.png,,,,,,,{button1},0.0,,,,4.0,1.0,4.0,0.0,TrialProc,NumberList2,,,,,,,1.0,{button1},9.0,33.0,271295.0,0.0,{Button1},1126.0,number
Wisconsin,1174,3,"<?xml version=""1.0""?>\n<Clock xmlns:dt=""urn:schemas-microsoft-com:datatypes""><Description dt:dt=""string"">E-Prime Primary Realtime Clock</Description><StartTime><Timestamp dt:dt=""int"">0</Timestamp><DateUtc dt:dt=""string"">2023-01-14T09:19:37Z</DateUtc></StartTime><FrequencyChanges><FrequencyChange><Frequency dt:dt=""r8"">10000000</Frequency><Timestamp dt:dt=""r8"">24312500921768</Timestamp><Current dt:dt=""r8"">0</Current><DateUtc dt:dt=""string"">2023-01-14T09:19:37Z</DateUtc></FrequencyChange></FrequencyChanges></Clock>\n",Wisconsin-1174-3,60.014,1.0.0.257,1,-1306348481,3.0.3.80,3.0.3.80,01-14-2023,1/14/2023 9:19:38 AM,17:19:38,3.0.3.82,3,,,,,,,BlockProc2,List2,1,,,,,,,,,,,,,,,,,2.0,1.0,2.0,3.0,1.0,1.0,,,,NumberProc2,List4,,,,,,,,,5.0,Button1.png,Button2.png,Button3.png,Button4.png,Greenstar1.png,,,,,,,{button4},0.0,,,,5.0,1.0,5.0,0.0,TrialProc,NumberList2,,,,,,,1.0,{button4},1.0,33.0,274994.0,0.0,{Button4},1131.0,number
Wisconsin,1174,3,"<?xml version=""1.0""?>\n<Clock xmlns:dt=""urn:schemas-microsoft-com:datatypes""><Description dt:dt=""string"">E-Prime Primary Realtime Clock</Description><StartTime><Timestamp dt:dt=""int"">0</Timestamp><DateUtc dt:dt=""string"">2023-01-14T09:19:37Z</DateUtc></StartTime><FrequencyChanges><FrequencyChange><Frequency dt:dt=""r8"">10000000</Frequency><Timestamp dt:dt=""r8"">24312500921768</Timestamp><Current dt:dt=""r8"">0</Current><DateUtc dt:dt=""string"">2023-01-14T09:19:37Z</DateUtc></FrequencyChange></FrequencyChanges></Clock>\n",Wisconsin-1174-3,60.014,1.0.0.257,1,-1306348481,3.0.3.80,3.0.3.80,01-14-2023,1/14/2023 9:19:38 AM,17:19:38,3.0.3.82,3,,,,,,,BlockProc2,List2,1,,,,,,,,,,,,,,,,,2.0,1.0,2.0,3.0,1.0,1.0,,,,NumberProc2,List4,,,,,,,,,6.0,Button1.png,Button2.png,Button3.png,Button4.png,Redstar1.png,,,,,,,{button4},0.0,,,,6.0,1.0,6.0,0.0,TrialProc,NumberList2,,,,,,,1.0,{button4},9.0,34.0,278710.0,0.0,{Button4},1455.0,number
Wisconsin,1174,3,"<?xml version=""1.0""?>\n<Clock xmlns:dt=""urn:schemas-microsoft-com:datatypes""><Description dt:dt=""string"">E-Prime Primary Realtime Clock</Description><StartTime><Timestamp dt:dt=""int"">0</Timestamp><DateUtc dt:dt=""string"">2023-01-14T09:19:37Z</DateUtc></StartTime><FrequencyChanges><FrequencyChange><Frequency dt:dt=""r8"">10000000</Frequency><Timestamp dt:dt=""r8"">24312500921768</Timestamp><Current dt:dt=""r8"">0</Current><DateUtc dt:dt=""string"">2023-01-14T09:19:37Z</DateUtc></FrequencyChange></FrequencyChanges></Clock>\n",Wisconsin-1174-3,60.014,1.0.0.257,1,-1306348481,3.0.3.80,3.0.3.80,01-14-2023,1/14/2023 9:19:38 AM,17:19:38,3.0.3.82,3,,,,,,,BlockProc2,List2,1,,,,,,,,,,,,,,,,,2.0,1.0,2.0,3.0,1.0,1.0,,,,NumberProc2,List4,,,,,,,,,7.0,Button1.png,Button2.png,Button3.png,Button4.png,Redtriangle2.png,,,,,,,{button1},0.0,,,,7.0,1.0,7.0,0.0,TrialProc,NumberList2,,,,,,,0.0,{button1},10.0,33.0,282742.0,0.0,{Button4},1439.0,number
Wisconsin,1174,3,"<?xml version=""1.0""?>\n<Clock xmlns:dt=""urn:schemas-microsoft-com:datatypes""><Description dt:dt=""string"">E-Prime Primary Realtime Clock</Description><StartTime><Timestamp dt:dt=""int"">0</Timestamp><DateUtc dt:dt=""string"">2023-01-14T09:19:37Z</DateUtc></StartTime><FrequencyChanges><FrequencyChange><Frequency dt:dt=""r8"">10000000</Frequency><Timestamp dt:dt=""r8"">24312500921768</Timestamp><Current dt:dt=""r8"">0</Current><DateUtc dt:dt=""string"">2023-01-14T09:19:37Z</DateUtc></FrequencyChange></FrequencyChanges></Clock>\n",Wisconsin-1174-3,60.014,1.0.0.257,1,-1306348481,3.0.3.80,3.0.3.80,01-14-2023,1/14/2023 9:19:38 AM,17:19:38,3.0.3.82,3,,,,,,,BlockProc2,List2,1,,,,,,,,,,,,,,,,,2.0,1.0,2.0,3.0,1.0,1.0,,,,NumberProc2,List4,,,,,,,,,8.0,Button1.png,Button2.png,Button3.png,Button4.png,yellowcircle4.png,,,,,,,{button2},0.0,,,,8.0,1.0,8.0,0.0,TrialProc,NumberList2,,,,,,,1.0,{button2},1.0,34.0,286758.0,0.0,{Button2},1031.0,number
Wisconsin,1174,3,"<?xml version=""1.0""?>\n<Clock xmlns:dt=""urn:schemas-microsoft-com:datatypes""><Description dt:dt=""string"">E-Prime Primary Realtime Clock</Description><StartTime><Timestamp dt:dt=""int"">0</Timestamp><DateUtc dt:dt=""string"">2023-01-14T09:19:37Z</DateUtc></StartTime><FrequencyChanges><FrequencyChange><Frequency dt:dt=""r8"">10000000</Frequency><Timestamp dt:dt=""r8"">24312500921768</Timestamp><Current dt:dt=""r8"">0</Current><DateUtc dt:dt=""string"">2023-01-14T09:19:37Z</DateUtc></FrequencyChange></FrequencyChanges></Clock>\n",Wisconsin-1174-3,60.014,1.0.0.257,1,-1306348481,3.0.3.80,3.0.3.80,01-14-2023,1/14/2023 9:19:38 AM,17:19:38,3.0.3.82,3,,,,,,,BlockProc2,List2,1,,,,,,,,,,,,,,,,,2.0,1.0,2.0,3.0,1.0,1.0,,,,NumberProc2,List4,,,,,,,,,9.0,Button1.png,Button2.png,Button3.png,Button4.png,Yellowcross2.png,,,,,,,{button1},0.0,,,,9.0,1.0,9.0,0.0,TrialProc,NumberList2,,,,,,,0.0,{button1},2.0,33.0,290373.0,0.0,{Button2},1840.0,number
Wisconsin,1174,3,"<?xml version=""1.0""?>\n<Clock xmlns:dt=""urn:schemas-microsoft-com:datatypes""><Description dt:dt=""string"">E-Prime Primary Realtime Clock</Description><StartTime><Timestamp dt:dt=""int"">0</Timestamp><DateUtc dt:dt=""string"">2023-01-14T09:19:37Z</DateUtc></StartTime><FrequencyChanges><FrequencyChange><Frequency dt:dt=""r8"">10000000</Frequency><Timestamp dt:dt=""r8"">24312500921768</Timestamp><Current dt:dt=""r8"">0</Current><DateUtc dt:dt=""string"">2023-01-14T09:19:37Z</DateUtc></FrequencyChange></FrequencyChanges></Clock>\n",Wisconsin-1174-3,60.014,1.0.0.257,1,-1306348481,3.0.3.80,3.0.3.80,01-14-2023,1/14/2023 9:19:38 AM,17:19:38,3.0.3.82,3,,,,,,,BlockProc2,List2,1,,,,,,,,,,,,,,,,,2.0,1.0,2.0,3.0,1.0,1.0,,,,NumberProc2,List4,,,,,,,,,10.0,Button1.png,Button2.png,Button3.png,Button4.png,Yellowtriangle2.png,,,,,,,{button3},0.0,,,,10.0,1.0,10.0,0.0,TrialProc,NumberList2,,,,,,,0.0,{button3},1.0,33.0,294789.0,0.0,{Button2},1128.0,number
Wisconsin,1174,3,"<?xml version=""1.0""?>\n<Clock xmlns:dt=""urn:schemas-microsoft-com:datatypes""><Description dt:dt=""string"">E-Prime Primary Realtime Clock</Description><StartTime><Timestamp dt:dt=""int"">0</Timestamp><DateUtc dt:dt=""string"">2023-01-14T09:19:37Z</DateUtc></StartTime><FrequencyChanges><FrequencyChange><Frequency dt:dt=""r8"">10000000</Frequency><Timestamp dt:dt=""r8"">24312500921768</Timestamp><Current dt:dt=""r8"">0</Current><DateUtc dt:dt=""string"">2023-01-14T09:19:37Z</DateUtc></FrequencyChange></FrequencyChanges></Clock>\n",Wisconsin-1174-3,60.014,1.0.0.257,1,-1306348481,3.0.3.80,3.0.3.80,01-14-2023,1/14/2023 9:19:38 AM,17:19:38,3.0.3.82,3,,,,,,,BlockProc2,List2,2,,,,,,,,,,,,,,,,,2.0,1.0,2.0,2.0,1.0,2.0,,,,ShapeProc2,List4,,,,,,,,,1.0,Button1.png,Button2.png,Button3.png,Button4.png,Redstar3.png,,,,,,,{button4},0.0,,,,,,,0.0,TrialProc,ShapeList2,,,,6.0,1.0,1.0,0.0,{button4},10.0,33.0,298505.0,0.0,{Button3},1052.0,Shape
Wisconsin,1174,3,"<?xml version=""1.0""?>\n<Clock xmlns:dt=""urn:schemas-microsoft-com:datatypes""><Description dt:dt=""string"">E-Prime Primary Realtime Clock</Description><StartTime><Timestamp dt:dt=""int"">0</Timestamp><DateUtc dt:dt=""string"">2023-01-14T09:19:37Z</DateUtc></StartTime><FrequencyChanges><FrequencyChange><Frequency dt:dt=""r8"">10000000</Frequency><Timestamp dt:dt=""r8"">24312500921768</Timestamp><Current dt:dt=""r8"">0</Current><DateUtc dt:dt=""string"">2023-01-14T09:19:37Z</DateUtc></FrequencyChange></FrequencyChanges></Clock>\n",Wisconsin-1174-3,60.014,1.0.0.257,1,-1306348481,3.0.3.80,3.0.3.80,01-14-2023,1/14/2023 9:19:38 AM,17:19:38,3.0.3.82,3,,,,,,,BlockProc2,List2,2,,,,,,,,,,,,,,,,,2.0,1.0,2.0,2.0,1.0,2.0,,,,ShapeProc2,List4,,,,,,,,,2.0,Button1.png,Button2.png,Button3.png,Button4.png,Yellowtriangle1.png,,,,,,,{button2},0.0,,,,,,,0.0,TrialProc,ShapeList2,,,,10.0,1.0,2.0,1.0,{button2},10.0,50.0,302154.0,0.0,{Button2},1179.0,Shape
Wisconsin,1174,3,"<?xml version=""1.0""?>\n<Clock xmlns:dt=""urn:schemas-microsoft-com:datatypes""><Description dt:dt=""string"">E-Prime Primary Realtime Clock</Description><StartTime><Timestamp dt:dt=""int"">0</Timestamp><DateUtc dt:dt=""string"">2023-01-14T09:19:37Z</DateUtc></StartTime><FrequencyChanges><FrequencyChange><Frequency dt:dt=""r8"">10000000</Frequency><Timestamp dt:dt=""r8"">24312500921768</Timestamp><Current dt:dt=""r8"">0</Current><DateUtc dt:dt=""string"">2023-01-14T09:19:37Z</DateUtc></FrequencyChange></FrequencyChanges></Clock>\n",Wisconsin-1174-3,60.014,1.0.0.257,1,-1306348481,3.0.3.80,3.0.3.80,01-14-2023,1/14/2023 9:19:38 AM,17:19:38,3.0.3.82,3,,,,,,,BlockProc2,List2,2,,,,,,,,,,,,,,,,,2.0,1.0,2.0,2.0,1.0,2.0,,,,ShapeProc2,List4,,,,,,,,,3.0,Button1.png,Button2.png,Button3.png,Button4.png,Redcross2.png,,,,,,,{button3},0.0,,,,,,,0.0,TrialProc,ShapeList2,,,,5.0,1.0,3.0,1.0,{button3},1.0,34.0,305920.0,0.0,{Button3},941.0,Shape
Wisconsin,1174,3,"<?xml version=""1.0""?>\n<Clock xmlns:dt=""urn:schemas-microsoft-com:datatypes""><Description dt:dt=""string"">E-Prime Primary Realtime Clock</Description><StartTime><Timestamp dt:dt=""int"">0</Timestamp><DateUtc dt:dt=""string"">2023-01-14T09:19:37Z</DateUtc></StartTime><FrequencyChanges><FrequencyChange><Frequency dt:dt=""r8"">10000000</Frequency><Timestamp dt:dt=""r8"">24312500921768</Timestamp><Current dt:dt=""r8"">0</Current><DateUtc dt:dt=""string"">2023-01-14T09:19:37Z</DateUtc></FrequencyChange></FrequencyChanges></Clock>\n",Wisconsin-1174-3,60.014,1.0.0.257,1,-1306348481,3.0.3.80,3.0.3.80,01-14-2023,1/14/2023 9:19:38 AM,17:19:38,3.0.3.82,3,,,,,,,BlockProc2,List2,2,,,,,,,,,,,,,,,,,2.0,1.0,2.0,2.0,1.0,2.0,,,,ShapeProc2,List4,,,,,,,,,4.0,Button1.png,Button2.png,Button3.png,Button4.png,Greenstar3.png,,,,,,,{button4},0.0,,,,,,,0.0,TrialProc,ShapeList2,,,,3.0,1.0,4.0,0.0,{button4},11.0,33.0,309435.0,0.0,{Button3},938.0,Shape
Wisconsin,1174,3,"<?xml version=""1.0""?>\n<Clock xmlns:dt=""urn:schemas-microsoft-com:datatypes""><Description dt:dt=""string"">E-Prime Primary Realtime Clock</Description><StartTime><Timestamp dt:dt=""int"">0</Timestamp><DateUtc dt:dt=""string"">2023-01-14T09:19:37Z</DateUtc></StartTime><FrequencyChanges><FrequencyChange><Frequency dt:dt=""r8"">10000000</Frequency><Timestamp dt:dt=""r8"">24312500921768</Timestamp><Current dt:dt=""r8"">0</Current><DateUtc dt:dt=""string"">2023-01-14T09:19:37Z</DateUtc></FrequencyChange></FrequencyChanges></Clock>\n",Wisconsin-1174-3,60.014,1.0.0.257,1,-1306348481,3.0.3.80,3.0.3.80,01-14-2023,1/14/2023 9:19:38 AM,17:19:38,3.0.3.82,3,,,,,,,BlockProc2,List2,2,,,,,,,,,,,,,,,,,2.0,1.0,2.0,2.0,1.0,2.0,,,,ShapeProc2,List4,,,,,,,,,5.0,Button1.png,Button2.png,Button3.png,Button4.png,Bluecircle3.png,,,,,,,{button1},0.0,,,,,,,0.0,TrialProc,ShapeList2,,,,1.0,1.0,5.0,1.0,{button1},2.0,50.0,312968.0,0.0,{Button1},1101.0,Shape
Wisconsin,1174,3,"<?xml version=""1.0""?>\n<Clock xmlns:dt=""urn:schemas-microsoft-com:datatypes""><Description dt:dt=""string"">E-Prime Primary Realtime Clock</Description><StartTime><Timestamp dt:dt=""int"">0</Timestamp><DateUtc dt:dt=""string"">2023-01-14T09:19:37Z</DateUtc></StartTime><FrequencyChanges><FrequencyChange><Frequency dt:dt=""r8"">10000000</Frequency><Timestamp dt:dt=""r8"">24312500921768</Timestamp><Current dt:dt=""r8"">0</Current><DateUtc dt:dt=""string"">2023-01-14T09:19:37Z</DateUtc></FrequencyChange></FrequencyChanges></Clock>\n",Wisconsin-1174-3,60.014,1.0.0.257,1,-1306348481,3.0.3.80,3.0.3.80,01-14-2023,1/14/2023 9:19:38 AM,17:19:38,3.0.3.82,3,,,,,,,BlockProc2,List2,2,,,,,,,,,,,,,,,,,2.0,1.0,2.0,2.0,1.0,2.0,,,,ShapeProc2,List4,,,,,,,,,6.0,Button1.png,Button2.png,Button3.png,Button4.png,Bluetriangle2.png,,,,,,,{button2},0.0,,,,,,,0.0,TrialProc,ShapeList2,,,,2.0,1.0,6.0,1.0,{button2},12.0,50.0,316667.0,0.0,{Button2},922.0,Shape
Wisconsin,1174,3,"<?xml version=""1.0""?>\n<Clock xmlns:dt=""urn:schemas-microsoft-com:datatypes""><Description dt:dt=""string"">E-Prime Primary Realtime Clock</Description><StartTime><Timestamp dt:dt=""int"">0</Timestamp><DateUtc dt:dt=""string"">2023-01-14T09:19:37Z</DateUtc></StartTime><FrequencyChanges><FrequencyChange><Frequency dt:dt=""r8"">10000000</Frequency><Timestamp dt:dt=""r8"">24312500921768</Timestamp><Current dt:dt=""r8"">0</Current><DateUtc dt:dt=""string"">2023-01-14T09:19:37Z</DateUtc></FrequencyChange></FrequencyChanges></Clock>\n",Wisconsin-1174-3,60.014,1.0.0.257,1,-1306348481,3.0.3.80,3.0.3.80,01-14-2023,1/14/2023 9:19:38 AM,17:19:38,3.0.3.82,3,,,,,,,BlockProc2,List2,2,,,,,,,,,,,,,,,,,2.0,1.0,2.0,2.0,1.0,2.0,,,,ShapeProc2,List4,,,,,,,,,7.0,Button1.png,Button2.png,Button3.png,Button4.png,yellowcross4.png,,,,,,,{button3},0.0,,,,,,,0.0,TrialProc,ShapeList2,,,,8.0,1.0,7.0,1.0,{button3},10.0,50.0,320183.0,0.0,{Button3},918.0,Shape
Wisconsin,1174,3,"<?xml version=""1.0""?>\n<Clock xmlns:dt=""urn:schemas-microsoft-com:datatypes""><Description dt:dt=""string"">E-Prime Primary Realtime Clock</Description><StartTime><Timestamp dt:dt=""int"">0</Timestamp><DateUtc dt:dt=""string"">2023-01-14T09:19:37Z</DateUtc></StartTime><FrequencyChanges><FrequencyChange><Frequency dt:dt=""r8"">10000000</Frequency><Timestamp dt:dt=""r8"">24312500921768</Timestamp><Current dt:dt=""r8"">0</Current><DateUtc dt:dt=""string"">2023-01-14T09:19:37Z</DateUtc></FrequencyChange></FrequencyChanges></Clock>\n",Wisconsin-1174-3,60.014,1.0.0.257,1,-1306348481,3.0.3.80,3.0.3.80,01-14-2023,1/14/2023 9:19:38 AM,17:19:38,3.0.3.82,3,,,,,,,BlockProc2,List2,2,,,,,,,,,,,,,,,,,2.0,1.0,2.0,2.0,1.0,2.0,,,,ShapeProc2,List4,,,,,,,,,8.0,Button1.png,Button2.png,Button3.png,Button4.png,Redtriangle3.png,,,,,,,{button2},0.0,,,,,,,0.0,TrialProc,ShapeList2,,,,7.0,1.0,8.0,0.0,{button2},10.0,33.0,323682.0,0.0,{Button3},803.0,Shape
Wisconsin,1174,3,"<?xml version=""1.0""?>\n<Clock xmlns:dt=""urn:schemas-microsoft-com:datatypes""><Description dt:dt=""string"">E-Prime Primary Realtime Clock</Description><StartTime><Timestamp dt:dt=""int"">0</Timestamp><DateUtc dt:dt=""string"">2023-01-14T09:19:37Z</DateUtc></StartTime><FrequencyChanges><FrequencyChange><Frequency dt:dt=""r8"">10000000</Frequency><Timestamp dt:dt=""r8"">24312500921768</Timestamp><Current dt:dt=""r8"">0</Current><DateUtc dt:dt=""string"">2023-01-14T09:19:37Z</DateUtc></FrequencyChange></FrequencyChanges></Clock>\n",Wisconsin-1174-3,60.014,1.0.0.257,1,-1306348481,3.0.3.80,3.0.3.80,01-14-2023,1/14/2023 9:19:38 AM,17:19:38,3.0.3.82,3,,,,,,,BlockProc2,List2,2,,,,,,,,,,,,,,,,,2.0,1.0,2.0,2.0,1.0,2.0,,,,ShapeProc2,List4,,,,,,,,,9.0,Button1.png,Button2.png,Button3.png,Button4.png,Yellowstar2.png,,,,,,,{button4},0.0,,,,,,,0.0,TrialProc,ShapeList2,,,,9.0,1.0,9.0,1.0,{button4},10.0,33.0,327064.0,0.0,{Button4},1413.0,Shape
Wisconsin,1174,3,"<?xml version=""1.0""?>\n<Clock xmlns:dt=""urn:schemas-microsoft-com:datatypes""><Description dt:dt=""string"">E-Prime Primary Realtime Clock</Description><StartTime><Timestamp dt:dt=""int"">0</Timestamp><DateUtc dt:dt=""string"">2023-01-14T09:19:37Z</DateUtc></StartTime><FrequencyChanges><FrequencyChange><Frequency dt:dt=""r8"">10000000</Frequency><Timestamp dt:dt=""r8"">24312500921768</Timestamp><Current dt:dt=""r8"">0</Current><DateUtc dt:dt=""string"">2023-01-14T09:19:37Z</DateUtc></FrequencyChange></FrequencyChanges></Clock>\n",Wisconsin-1174-3,60.014,1.0.0.257,1,-1306348481,3.0.3.80,3.0.3.80,01-14-2023,1/14/2023 9:19:38 AM,17:19:38,3.0.3.82,3,,,,,,,BlockProc2,List2,2,,,,,,,,,,,,,,,,,2.0,1.0,2.0,2.0,1.0,2.0,,,,ShapeProc2,List4,,,,,,,,,10.0,Button1.png,Button2.png,Button3.png,Button4.png,redcircle1.png,,,,,,,{button1},0.0,,,,,,,0.0,TrialProc,ShapeList2,,,,4.0,1.0,10.0,1.0,{button1},11.0,33.0,331063.0,0.0,{Button1},1022.0,Shape
Wisconsin,1174,3,"<?xml version=""1.0""?>\n<Clock xmlns:dt=""urn:schemas-microsoft-com:datatypes""><Description dt:dt=""string"">E-Prime Primary Realtime Clock</Description><StartTime><Timestamp dt:dt=""int"">0</Timestamp><DateUtc dt:dt=""string"">2023-01-14T09:19:37Z</DateUtc></StartTime><FrequencyChanges><FrequencyChange><Frequency dt:dt=""r8"">10000000</Frequency><Timestamp dt:dt=""r8"">24312500921768</Timestamp><Current dt:dt=""r8"">0</Current><DateUtc dt:dt=""string"">2023-01-14T09:19:37Z</DateUtc></FrequencyChange></FrequencyChanges></Clock>\n",Wisconsin-1174-3,60.014,1.0.0.257,1,-1306348481,3.0.3.80,3.0.3.80,01-14-2023,1/14/2023 9:19:38 AM,17:19:38,3.0.3.82,3,,,,,,,BlockProc2,List2,3,,,,,,,,,,,,,,,,,2.0,1.0,2.0,1.0,1.0,3.0,,,,ColorProc2,List4,,,,,,,,,1.0,BUTTON1.png,BUTTON2.PNG,BUTTON3.png,BUTTON4.png,yellowcircle2.png,,,,9.0,1.0,1.0,{Button2},0.0,,,,,,,0.0,TrialProc,ColorList2,,,,,,,1.0,{Button2},10.0,33.0,334662.0,0.0,{Button2},1775.0,color
Wisconsin,1174,3,"<?xml version=""1.0""?>\n<Clock xmlns:dt=""urn:schemas-microsoft-com:datatypes""><Description dt:dt=""string"">E-Prime Primary Realtime Clock</Description><StartTime><Timestamp dt:dt=""int"">0</Timestamp><DateUtc dt:dt=""string"">2023-01-14T09:19:37Z</DateUtc></StartTime><FrequencyChanges><FrequencyChange><Frequency dt:dt=""r8"">10000000</Frequency><Timestamp dt:dt=""r8"">24312500921768</Timestamp><Current dt:dt=""r8"">0</Current><DateUtc dt:dt=""string"">2023-01-14T09:19:37Z</DateUtc></FrequencyChange></FrequencyChanges></Clock>\n",Wisconsin-1174-3,60.014,1.0.0.257,1,-1306348481,3.0.3.80,3.0.3.80,01-14-2023,1/14/2023 9:19:38 AM,17:19:38,3.0.3.82,3,,,,,,,BlockProc2,List2,3,,,,,,,,,,,,,,,,,2.0,1.0,2.0,1.0,1.0,3.0,,,,ColorProc2,List4,,,,,,,,,2.0,BUTTON1.png,BUTTON2.PNG,BUTTON3.png,BUTTON4.png,bluestar3.png,,,,2.0,1.0,2.0,{Button4},0.0,,,,,,,0.0,TrialProc,ColorList2,,,,,,,0.0,{Button4},10.0,33.0,339011.0,0.0,{Button3},1458.0,color
Wisconsin,1174,3,"<?xml version=""1.0""?>\n<Clock xmlns:dt=""urn:schemas-microsoft-com:datatypes""><Description dt:dt=""string"">E-Prime Primary Realtime Clock</Description><StartTime><Timestamp dt:dt=""int"">0</Timestamp><DateUtc dt:dt=""string"">2023-01-14T09:19:37Z</DateUtc></StartTime><FrequencyChanges><FrequencyChange><Frequency dt:dt=""r8"">10000000</Frequency><Timestamp dt:dt=""r8"">24312500921768</Timestamp><Current dt:dt=""r8"">0</Current><DateUtc dt:dt=""string"">2023-01-14T09:19:37Z</DateUtc></FrequencyChange></FrequencyChanges></Clock>\n",Wisconsin-1174-3,60.014,1.0.0.257,1,-1306348481,3.0.3.80,3.0.3.80,01-14-2023,1/14/2023 9:19:38 AM,17:19:38,3.0.3.82,3,,,,,,,BlockProc2,List2,3,,,,,,,,,,,,,,,,,2.0,1.0,2.0,1.0,1.0,3.0,,,,ColorProc2,List4,,,,,,,,,3.0,BUTTON1.png,BUTTON2.PNG,BUTTON3.png,BUTTON4.png,yellowtriangle3.png,,,,10.0,1.0,3.0,{Button2},0.0,,,,,,,0.0,TrialProc,ColorList2,,,,,,,1.0,{Button2},2.0,33.0,343044.0,0.0,{Button2},809.0,color
Wisconsin,1174,3,"<?xml version=""1.0""?>\n<Clock xmlns:dt=""urn:schemas-microsoft-com:datatypes""><Description dt:dt=""string"">E-Prime Primary Realtime Clock</Description><StartTime><Timestamp dt:dt=""int"">0</Timestamp><DateUtc dt:dt=""string"">2023-01-14T09:19:37Z</DateUtc></StartTime><FrequencyChanges><FrequencyChange><Frequency dt:dt=""r8"">10000000</Frequency><Timestamp dt:dt=""r8"">24312500921768</Timestamp><Current dt:dt=""r8"">0</Current><DateUtc dt:dt=""string"">2023-01-14T09:19:37Z</DateUtc></FrequencyChange></FrequencyChanges></Clock>\n",Wisconsin-1174-3,60.014,1.0.0.257,1,-1306348481,3.0.3.80,3.0.3.80,01-14-2023,1/14/2023 9:19:38 AM,17:19:38,3.0.3.82,3,,,,,,,BlockProc2,List2,3,,,,,,,,,,,,,,,,,2.0,1.0,2.0,1.0,1.0,3.0,,,,ColorProc2,List4,,,,,,,,,4.0,BUTTON1.png,BUTTON2.PNG,BUTTON3.png,BUTTON4.png,Redcircle2.png,,,,7.0,1.0,4.0,{Button3},0.0,,,,,,,0.0,TrialProc,ColorList2,,,,,,,1.0,{Button3},2.0,33.0,346426.0,0.0,{Button3},907.0,color
Wisconsin,1174,3,"<?xml version=""1.0""?>\n<Clock xmlns:dt=""urn:schemas-microsoft-com:datatypes""><Description dt:dt=""string"">E-Prime Primary Realtime Clock</Description><StartTime><Timestamp dt:dt=""int"">0</Timestamp><DateUtc dt:dt=""string"">2023-01-14T09:19:37Z</DateUtc></StartTime><FrequencyChanges><FrequencyChange><Frequency dt:dt=""r8"">10000000</Frequency><Timestamp dt:dt=""r8"">24312500921768</Timestamp><Current dt:dt=""r8"">0</Current><DateUtc dt:dt=""string"">2023-01-14T09:19:37Z</DateUtc></FrequencyChange></FrequencyChanges></Clock>\n",Wisconsin-1174-3,60.014,1.0.0.257,1,-1306348481,3.0.3.80,3.0.3.80,01-14-2023,1/14/2023 9:19:38 AM,17:19:38,3.0.3.82,3,,,,,,,BlockProc2,List2,3,,,,,,,,,,,,,,,,,2.0,1.0,2.0,1.0,1.0,3.0,,,,ColorProc2,List4,,,,,,,,,5.0,BUTTON1.png,BUTTON2.PNG,BUTTON3.png,BUTTON4.png,greencross4.png,,,,4.0,1.0,5.0,{Button1},0.0,,,,,,,0.0,TrialProc,ColorList2,,,,,,,0.0,{Button1},2.0,33.0,349909.0,0.0,{Button3},1232.0,color
Wisconsin,1174,3,"<?xml version=""1.0""?>\n<Clock xmlns:dt=""urn:schemas-microsoft-com:datatypes""><Description dt:dt=""string"">E-Prime Primary Realtime Clock</Description><StartTime><Timestamp dt:dt=""int"">0</Timestamp><DateUtc dt:dt=""string"">2023-01-14T09:19:37Z</DateUtc></StartTime><FrequencyChanges><FrequencyChange><Frequency dt:dt=""r8"">10000000</Frequency><Timestamp dt:dt=""r8"">24312500921768</Timestamp><Current dt:dt=""r8"">0</Current><DateUtc dt:dt=""string"">2023-01-14T09:19:37Z</DateUtc></FrequencyChange></FrequencyChanges></Clock>\n",Wisconsin-1174-3,60.014,1.0.0.257,1,-1306348481,3.0.3.80,3.0.3.80,01-14-2023,1/14/2023 9:19:38 AM,17:19:38,3.0.3.82,3,,,,,,,BlockProc2,List2,3,,,,,,,,,,,,,,,,,2.0,1.0,2.0,1.0,1.0,3.0,,,,ColorProc2,List4,,,,,,,,,6.0,BUTTON1.png,BUTTON2.PNG,BUTTON3.png,BUTTON4.png,redstar4.png,,,,8.0,1.0,6.0,{Button3},0.0,,,,,,,0.0,TrialProc,ColorList2,,,,,,,1.0,{Button3},10.0,50.0,353741.0,0.0,{Button3},832.0,color
Wisconsin,1174,3,"<?xml version=""1.0""?>\n<Clock xmlns:dt=""urn:schemas-microsoft-com:datatypes""><Description dt:dt=""string"">E-Prime Primary Realtime Clock</Description><StartTime><Timestamp dt:dt=""int"">0</Timestamp><DateUtc dt:dt=""string"">2023-01-14T09:19:37Z</DateUtc></StartTime><FrequencyChanges><FrequencyChange><Frequency dt:dt=""r8"">10000000</Frequency><Timestamp dt:dt=""r8"">24312500921768</Timestamp><Current dt:dt=""r8"">0</Current><DateUtc dt:dt=""string"">2023-01-14T09:19:37Z</DateUtc></FrequencyChange></FrequencyChanges></Clock>\n",Wisconsin-1174-3,60.014,1.0.0.257,1,-1306348481,3.0.3.80,3.0.3.80,01-14-2023,1/14/2023 9:19:38 AM,17:19:38,3.0.3.82,3,,,,,,,BlockProc2,List2,3,,,,,,,,,,,,,,,,,2.0,1.0,2.0,1.0,1.0,3.0,,,,ColorProc2,List4,,,,,,,,,7.0,BUTTON1.png,BUTTON2.PNG,BUTTON3.png,BUTTON4.png,bluecross1.png,,,,1.0,1.0,7.0,{Button4},0.0,,,,,,,0.0,TrialProc,ColorList2,,,,,,,0.0,{Button4},9.0,33.0,357157.0,0.0,{Button3},1256.0,color
Wisconsin,1174,3,"<?xml version=""1.0""?>\n<Clock xmlns:dt=""urn:schemas-microsoft-com:datatypes""><Description dt:dt=""string"">E-Prime Primary Realtime Clock</Description><StartTime><Timestamp dt:dt=""int"">0</Timestamp><DateUtc dt:dt=""string"">2023-01-14T09:19:37Z</DateUtc></StartTime><FrequencyChanges><FrequencyChange><Frequency dt:dt=""r8"">10000000</Frequency><Timestamp dt:dt=""r8"">24312500921768</Timestamp><Current dt:dt=""r8"">0</Current><DateUtc dt:dt=""string"">2023-01-14T09:19:37Z</DateUtc></FrequencyChange></FrequencyChanges></Clock>\n",Wisconsin-1174-3,60.014,1.0.0.257,1,-1306348481,3.0.3.80,3.0.3.80,01-14-2023,1/14/2023 9:19:38 AM,17:19:38,3.0.3.82,3,,,,,,,BlockProc2,List2,3,,,,,,,,,,,,,,,,,2.0,1.0,2.0,1.0,1.0,3.0,,,,ColorProc2,List4,,,,,,,,,8.0,BUTTON1.png,BUTTON2.PNG,BUTTON3.png,BUTTON4.png,Greencircle1.png,,,,3.0,1.0,8.0,{Button1},0.0,,,,,,,0.0,TrialProc,ColorList2,,,,,,,1.0,{Button1},10.0,50.0,361006.0,0.0,{Button1},895.0,color
Wisconsin,1174,3,"<?xml version=""1.0""?>\n<Clock xmlns:dt=""urn:schemas-microsoft-com:datatypes""><Description dt:dt=""string"">E-Prime Primary Realtime Clock</Description><StartTime><Timestamp dt:dt=""int"">0</Timestamp><DateUtc dt:dt=""string"">2023-01-14T09:19:37Z</DateUtc></StartTime><FrequencyChanges><FrequencyChange><Frequency dt:dt=""r8"">10000000</Frequency><Timestamp dt:dt=""r8"">24312500921768</Timestamp><Current dt:dt=""r8"">0</Current><DateUtc dt:dt=""string"">2023-01-14T09:19:37Z</DateUtc></FrequencyChange></FrequencyChanges></Clock>\n",Wisconsin-1174-3,60.014,1.0.0.257,1,-1306348481,3.0.3.80,3.0.3.80,01-14-2023,1/14/2023 9:19:38 AM,17:19:38,3.0.3.82,3,,,,,,,BlockProc2,List2,3,,,,,,,,,,,,,,,,,2.0,1.0,2.0,1.0,1.0,3.0,,,,ColorProc2,List4,,,,,,,,,9.0,BUTTON1.png,BUTTON2.PNG,BUTTON3.png,BUTTON4.png,greentriangle2.png,,,,6.0,1.0,9.0,{Button1},0.0,,,,,,,0.0,TrialProc,ColorList2,,,,,,,1.0,{Button1},2.0,33.0,364472.0,0.0,{Button1},1341.0,color
Wisconsin,1174,3,"<?xml version=""1.0""?>\n<Clock xmlns:dt=""urn:schemas-microsoft-com:datatypes""><Description dt:dt=""string"">E-Prime Primary Realtime Clock</Description><StartTime><Timestamp dt:dt=""int"">0</Timestamp><DateUtc dt:dt=""string"">2023-01-14T09:19:37Z</DateUtc></StartTime><FrequencyChanges><FrequencyChange><Frequency dt:dt=""r8"">10000000</Frequency><Timestamp dt:dt=""r8"">24312500921768</Timestamp><Current dt:dt=""r8"">0</Current><DateUtc dt:dt=""string"">2023-01-14T09:19:37Z</DateUtc></FrequencyChange></FrequencyChanges></Clock>\n",Wisconsin-1174-3,60.014,1.0.0.257,1,-1306348481,3.0.3.80,3.0.3.80,01-14-2023,1/14/2023 9:19:38 AM,17:19:38,3.0.3.82,3,,,,,,,BlockProc2,List2,3,,,,,,,,,,,,,,,,,2.0,1.0,2.0,1.0,1.0,3.0,,,,ColorProc2,List4,,,,,,,,,10.0,BUTTON1.png,BUTTON2.PNG,BUTTON3.png,BUTTON4.png,greenstar4.png,,,,5.0,1.0,10.0,{Button1},0.0,,,,,,,0.0,TrialProc,ColorList2,,,,,,,1.0,{Button1},9.0,33.0,368388.0,0.0,{Button1},1265.0,color
