ExperimentName,Subject,Session,Clock.Information,DataFile.Basename,Display.RefreshRate,ExperimentVersion,Group,RandomSeed,RuntimeVersion,RuntimeVersionExpected,SessionDate,SessionStartDateTimeUtc,SessionTime,StudioVersion,Block,List1,List1.Cycle,List1.Sample,List3,List3.Cycle,List3.Sample,Procedure[Block],Running[Block],Trial,CardIMG1[Trial],CardIMG2[Trial],CardIMG3[Trial],CardIMG4[Trial],CardStim[Trial],Category,CorrectAnswer[Trial],FeedbackDisplay2.ACC,FeedbackDisplay2.CRESP,FeedbackDisplay2.DurationError,FeedbackDisplay2.OnsetDelay,FeedbackDisplay2.OnsetTime,FeedbackDisplay2.OnsetToOnsetTime,FeedbackDisplay2.RESP,FeedbackDisplay2.RT,FeedbackDisplay2.RTTime,List2,List2.Cycle,List2.Sample,List4,List4.Cycle,List4.Sample,PracticeList,PracticeList.Cycle,PracticeList.Sample,Procedure[Trial],Running[Trial],FeedbackDisplay2.ACC,FeedbackDisplay2.CRESP,FeedbackDisplay2.DurationError,FeedbackDisplay2.OnsetDelay,FeedbackDisplay2.OnsetTime,FeedbackDisplay2.OnsetToOnsetTime,FeedbackDisplay2.RESP,FeedbackDisplay2.RT,SubTrial,CardIMG1[SubTrial],CardIMG2[SubTrial],CardIMG3[SubTrial],CardIMG4[SubTrial],CardStim[SubTrial],ColorList,ColorList.Cycle,ColorList.Sample,ColorList2,ColorList2.Cycle,ColorList2.Sample,CorrectAnswer[SubTrial],NonPerseverativeError,NumberList,NumberList.Cycle,NumberList.Sample,NumberList1,NumberList1.Cycle,NumberList1.Sample,PerseverativeError,Procedure[SubTrial],Running[SubTrial],ShapeList,ShapeList.Cycle,ShapeList.Sample,ShapeList1,ShapeList1.Cycle,ShapeList1.Sample,Stimulus.ACC,Stimulus.CRESP,Stimulus.DurationError,Stimulus.OnsetDelay,Stimulus.OnsetTime,Stimulus.OnsetToOnsetTime,Stimulus.RESP,Stimulus.RT,TrialType
Wisconsin,1155,4,"<?xml version=""1.0""?>\n<Clock xmlns:dt=""urn:schemas-microsoft-com:datatypes""><Description dt:dt=""string"">E-Prime Primary Realtime Clock</Description><StartTime><Timestamp dt:dt=""int"">0</Timestamp><DateUtc dt:dt=""string"">2023-02-11T03:28:40Z</DateUtc></StartTime><FrequencyChanges><FrequencyChange><Frequency dt:dt=""r8"">10000000</Frequency><Timestamp dt:dt=""r8"">607444700569</Timestamp><Current dt:dt=""r8"">0</Current><DateUtc dt:dt=""string"">2023-02-11T03:28:40Z</DateUtc></FrequencyChange></FrequencyChanges></Clock>\n",Wisconsin-1155-4,60.039,1.0.0.262,1,1857011325,3.0.3.80,3.0.3.80,02-11-2023,2/11/2023 3:28:41 AM,11:28:41,3.0.3.82,1,1.0,1.0,1.0,,,,Practiceploc,List1,1,Button1.png,Button2.png,Button3.png,Button4.png,Greencircle3.png,顏色,{button1},0.0,{button1},2.0,50.0,50825.0,0.0,{Button3},2128.0,52953.0,,,,,,,1.0,1.0,1.0,PracticeTrialProc,PracticeList,0.0,{button1},2.0,50.0,50825.0,0.0,{Button3},2128.0,,,,,,,,,,,,,,,,,,,,,,,,,,,,,,,,,,,,,,
Wisconsin,1155,4,"<?xml version=""1.0""?>\n<Clock xmlns:dt=""urn:schemas-microsoft-com:datatypes""><Description dt:dt=""string"">E-Prime Primary Realtime Clock</Description><StartTime><Timestamp dt:dt=""int"">0</Timestamp><DateUtc dt:dt=""string"">2023-02-11T03:28:40Z</DateUtc></StartTime><FrequencyChanges><FrequencyChange><Frequency dt:dt=""r8"">10000000</Frequency><Timestamp dt:dt=""r8"">607444700569</Timestamp><Current dt:dt=""r8"">0</Current><DateUtc dt:dt=""string"">2023-02-11T03:28:40Z</DateUtc></FrequencyChange></FrequencyChanges></Clock>\n",Wisconsin-1155-4,60.039,1.0.0.262,1,1857011325,3.0.3.80,3.0.3.80,02-11-2023,2/11/2023 3:28:41 AM,11:28:41,3.0.3.82,1,1.0,1.0,1.0,,,,Practiceploc,List1,2,Button1.png,Button2.png,Button3.png,Button4.png,Redstar2.png,顏色,{button3},1.0,{button3},2.0,33.0,55590.0,0.0,{Button3},3194.0,58784.0,,,,,,,2.0,1.0,2.0,PracticeTrialProc,PracticeList,1.0,{button3},2.0,33.0,55590.0,0.0,{Button3},3194.0,,,,,,,,,,,,,,,,,,,,,,,,,,,,,,,,,,,,,,
Wisconsin,1155,4,"<?xml version=""1.0""?>\n<Clock xmlns:dt=""urn:schemas-microsoft-com:datatypes""><Description dt:dt=""string"">E-Prime Primary Realtime Clock</Description><StartTime><Timestamp dt:dt=""int"">0</Timestamp><DateUtc dt:dt=""string"">2023-02-11T03:28:40Z</DateUtc></StartTime><FrequencyChanges><FrequencyChange><Frequency dt:dt=""r8"">10000000</Frequency><Timestamp dt:dt=""r8"">607444700569</Timestamp><Current dt:dt=""r8"">0</Current><DateUtc dt:dt=""string"">2023-02-11T03:28:40Z</DateUtc></FrequencyChange></FrequencyChanges></Clock>\n",Wisconsin-1155-4,60.039,1.0.0.262,1,1857011325,3.0.3.80,3.0.3.80,02-11-2023,2/11/2023 3:28:41 AM,11:28:41,3.0.3.82,1,1.0,1.0,1.0,,,,Practiceploc,List1,3,Button1.png,Button2.png,Button3.png,Button4.png,Bluetriangle1.png,形狀,{button2},1.0,{button2},10.0,33.0,61372.0,0.0,{Button2},1668.0,63040.0,,,,,,,3.0,1.0,3.0,PracticeTrialProc,PracticeList,1.0,{button2},10.0,33.0,61372.0,0.0,{Button2},1668.0,,,,,,,,,,,,,,,,,,,,,,,,,,,,,,,,,,,,,,
Wisconsin,1155,4,"<?xml version=""1.0""?>\n<Clock xmlns:dt=""urn:schemas-microsoft-com:datatypes""><Description dt:dt=""string"">E-Prime Primary Realtime Clock</Description><StartTime><Timestamp dt:dt=""int"">0</Timestamp><DateUtc dt:dt=""string"">2023-02-11T03:28:40Z</DateUtc></StartTime><FrequencyChanges><FrequencyChange><Frequency dt:dt=""r8"">10000000</Frequency><Timestamp dt:dt=""r8"">607444700569</Timestamp><Current dt:dt=""r8"">0</Current><DateUtc dt:dt=""string"">2023-02-11T03:28:40Z</DateUtc></FrequencyChange></FrequencyChanges></Clock>\n",Wisconsin-1155-4,60.039,1.0.0.262,1,1857011325,3.0.3.80,3.0.3.80,02-11-2023,2/11/2023 3:28:41 AM,11:28:41,3.0.3.82,1,1.0,1.0,1.0,,,,Practiceploc,List1,4,Button1.png,Button2.png,Button3.png,Button4.png,greenstar2.png,形狀,{Button4},1.0,{Button4},9.0,33.0,65621.0,0.0,{Button4},3283.0,68904.0,,,,,,,4.0,1.0,4.0,PracticeTrialProc,PracticeList,1.0,{Button4},9.0,33.0,65621.0,0.0,{Button4},3283.0,,,,,,,,,,,,,,,,,,,,,,,,,,,,,,,,,,,,,,
Wisconsin,1155,4,"<?xml version=""1.0""?>\n<Clock xmlns:dt=""urn:schemas-microsoft-com:datatypes""><Description dt:dt=""string"">E-Prime Primary Realtime Clock</Description><StartTime><Timestamp dt:dt=""int"">0</Timestamp><DateUtc dt:dt=""string"">2023-02-11T03:28:40Z</DateUtc></StartTime><FrequencyChanges><FrequencyChange><Frequency dt:dt=""r8"">10000000</Frequency><Timestamp dt:dt=""r8"">607444700569</Timestamp><Current dt:dt=""r8"">0</Current><DateUtc dt:dt=""string"">2023-02-11T03:28:40Z</DateUtc></FrequencyChange></FrequencyChanges></Clock>\n",Wisconsin-1155-4,60.039,1.0.0.262,1,1857011325,3.0.3.80,3.0.3.80,02-11-2023,2/11/2023 3:28:41 AM,11:28:41,3.0.3.82,1,1.0,1.0,1.0,,,,Practiceploc,List1,5,Button1.png,Button2.png,Button3.png,Button4.png,BlueCross4.png,圖案數目,{Button2},1.0,{Button2},1.0,34.0,71487.0,0.0,{Button2},2169.0,73656.0,,,,,,,5.0,1.0,5.0,PracticeTrialProc,PracticeList,1.0,{Button2},1.0,34.0,71487.0,0.0,{Button2},2169.0,,,,,,,,,,,,,,,,,,,,,,,,,,,,,,,,,,,,,,
Wisconsin,1155,4,"<?xml version=""1.0""?>\n<Clock xmlns:dt=""urn:schemas-microsoft-com:datatypes""><Description dt:dt=""string"">E-Prime Primary Realtime Clock</Description><StartTime><Timestamp dt:dt=""int"">0</Timestamp><DateUtc dt:dt=""string"">2023-02-11T03:28:40Z</DateUtc></StartTime><FrequencyChanges><FrequencyChange><Frequency dt:dt=""r8"">10000000</Frequency><Timestamp dt:dt=""r8"">607444700569</Timestamp><Current dt:dt=""r8"">0</Current><DateUtc dt:dt=""string"">2023-02-11T03:28:40Z</DateUtc></FrequencyChange></FrequencyChanges></Clock>\n",Wisconsin-1155-4,60.039,1.0.0.262,1,1857011325,3.0.3.80,3.0.3.80,02-11-2023,2/11/2023 3:28:41 AM,11:28:41,3.0.3.82,1,1.0,1.0,1.0,,,,Practiceploc,List1,6,Button1.png,Button2.png,Button3.png,Button4.png,yellowcircle2.png,圖案數目,{Button1},1.0,{Button1},10.0,33.0,76235.0,0.0,{Button1},3245.0,79480.0,,,,,,,6.0,1.0,6.0,PracticeTrialProc,PracticeList,1.0,{Button1},10.0,33.0,76235.0,0.0,{Button1},3245.0,,,,,,,,,,,,,,,,,,,,,,,,,,,,,,,,,,,,,,
Wisconsin,1155,4,"<?xml version=""1.0""?>\n<Clock xmlns:dt=""urn:schemas-microsoft-com:datatypes""><Description dt:dt=""string"">E-Prime Primary Realtime Clock</Description><StartTime><Timestamp dt:dt=""int"">0</Timestamp><DateUtc dt:dt=""string"">2023-02-11T03:28:40Z</DateUtc></StartTime><FrequencyChanges><FrequencyChange><Frequency dt:dt=""r8"">10000000</Frequency><Timestamp dt:dt=""r8"">607444700569</Timestamp><Current dt:dt=""r8"">0</Current><DateUtc dt:dt=""string"">2023-02-11T03:28:40Z</DateUtc></FrequencyChange></FrequencyChanges></Clock>\n",Wisconsin-1155-4,60.039,1.0.0.262,1,1857011325,3.0.3.80,3.0.3.80,02-11-2023,2/11/2023 3:28:41 AM,11:28:41,3.0.3.82,2,,,,1.0,1.0,1.0,BlockProc,List2,1,,,,,,,,,,,,,,,,,1.0,1.0,1.0,,,,,,,ColorProc,List3,,,,,,,,,1.0,BUTTON1.png,BUTTON2.PNG,BUTTON3.png,BUTTON4.png,bluecross2.png,2.0,1.0,1.0,,,,{button4},0.0,,,,,,,0.0,TrialProc,ColorList,,,,,,,1.0,{button4},2.0,49.0,84233.0,0.0,{Button4},1991.0,Color
Wisconsin,1155,4,"<?xml version=""1.0""?>\n<Clock xmlns:dt=""urn:schemas-microsoft-com:datatypes""><Description dt:dt=""string"">E-Prime Primary Realtime Clock</Description><StartTime><Timestamp dt:dt=""int"">0</Timestamp><DateUtc dt:dt=""string"">2023-02-11T03:28:40Z</DateUtc></StartTime><FrequencyChanges><FrequencyChange><Frequency dt:dt=""r8"">10000000</Frequency><Timestamp dt:dt=""r8"">607444700569</Timestamp><Current dt:dt=""r8"">0</Current><DateUtc dt:dt=""string"">2023-02-11T03:28:40Z</DateUtc></FrequencyChange></FrequencyChanges></Clock>\n",Wisconsin-1155-4,60.039,1.0.0.262,1,1857011325,3.0.3.80,3.0.3.80,02-11-2023,2/11/2023 3:28:41 AM,11:28:41,3.0.3.82,2,,,,1.0,1.0,1.0,BlockProc,List2,1,,,,,,,,,,,,,,,,,1.0,1.0,1.0,,,,,,,ColorProc,List3,,,,,,,,,2.0,BUTTON1.png,BUTTON2.PNG,BUTTON3.png,BUTTON4.png,bluetriangle3.png,3.0,1.0,2.0,,,,{button4},0.0,,,,,,,0.0,TrialProc,ColorList,,,,,,,1.0,{button4},1.0,33.0,88799.0,0.0,{Button4},1081.0,Color
Wisconsin,1155,4,"<?xml version=""1.0""?>\n<Clock xmlns:dt=""urn:schemas-microsoft-com:datatypes""><Description dt:dt=""string"">E-Prime Primary Realtime Clock</Description><StartTime><Timestamp dt:dt=""int"">0</Timestamp><DateUtc dt:dt=""string"">2023-02-11T03:28:40Z</DateUtc></StartTime><FrequencyChanges><FrequencyChange><Frequency dt:dt=""r8"">10000000</Frequency><Timestamp dt:dt=""r8"">607444700569</Timestamp><Current dt:dt=""r8"">0</Current><DateUtc dt:dt=""string"">2023-02-11T03:28:40Z</DateUtc></FrequencyChange></FrequencyChanges></Clock>\n",Wisconsin-1155-4,60.039,1.0.0.262,1,1857011325,3.0.3.80,3.0.3.80,02-11-2023,2/11/2023 3:28:41 AM,11:28:41,3.0.3.82,2,,,,1.0,1.0,1.0,BlockProc,List2,1,,,,,,,,,,,,,,,,,1.0,1.0,1.0,,,,,,,ColorProc,List3,,,,,,,,,3.0,BUTTON1.png,BUTTON2.PNG,BUTTON3.png,BUTTON4.png,greenstar2.png,5.0,1.0,3.0,,,,{button1},0.0,,,,,,,0.0,TrialProc,ColorList,,,,,,,1.0,{button1},2.0,49.0,92481.0,0.0,{Button1},1175.0,Color
Wisconsin,1155,4,"<?xml version=""1.0""?>\n<Clock xmlns:dt=""urn:schemas-microsoft-com:datatypes""><Description dt:dt=""string"">E-Prime Primary Realtime Clock</Description><StartTime><Timestamp dt:dt=""int"">0</Timestamp><DateUtc dt:dt=""string"">2023-02-11T03:28:40Z</DateUtc></StartTime><FrequencyChanges><FrequencyChange><Frequency dt:dt=""r8"">10000000</Frequency><Timestamp dt:dt=""r8"">607444700569</Timestamp><Current dt:dt=""r8"">0</Current><DateUtc dt:dt=""string"">2023-02-11T03:28:40Z</DateUtc></FrequencyChange></FrequencyChanges></Clock>\n",Wisconsin-1155-4,60.039,1.0.0.262,1,1857011325,3.0.3.80,3.0.3.80,02-11-2023,2/11/2023 3:28:41 AM,11:28:41,3.0.3.82,2,,,,1.0,1.0,1.0,BlockProc,List2,1,,,,,,,,,,,,,,,,,1.0,1.0,1.0,,,,,,,ColorProc,List3,,,,,,,,,4.0,BUTTON1.png,BUTTON2.PNG,BUTTON3.png,BUTTON4.png,greentriangle3.png,7.0,1.0,4.0,,,,{button1},0.0,,,,,,,0.0,TrialProc,ColorList,,,,,,,1.0,{button1},9.0,33.0,96230.0,0.0,{Button1},1650.0,Color
Wisconsin,1155,4,"<?xml version=""1.0""?>\n<Clock xmlns:dt=""urn:schemas-microsoft-com:datatypes""><Description dt:dt=""string"">E-Prime Primary Realtime Clock</Description><StartTime><Timestamp dt:dt=""int"">0</Timestamp><DateUtc dt:dt=""string"">2023-02-11T03:28:40Z</DateUtc></StartTime><FrequencyChanges><FrequencyChange><Frequency dt:dt=""r8"">10000000</Frequency><Timestamp dt:dt=""r8"">607444700569</Timestamp><Current dt:dt=""r8"">0</Current><DateUtc dt:dt=""string"">2023-02-11T03:28:40Z</DateUtc></FrequencyChange></FrequencyChanges></Clock>\n",Wisconsin-1155-4,60.039,1.0.0.262,1,1857011325,3.0.3.80,3.0.3.80,02-11-2023,2/11/2023 3:28:41 AM,11:28:41,3.0.3.82,2,,,,1.0,1.0,1.0,BlockProc,List2,1,,,,,,,,,,,,,,,,,1.0,1.0,1.0,,,,,,,ColorProc,List3,,,,,,,,,5.0,BUTTON1.png,BUTTON2.PNG,BUTTON3.png,BUTTON4.png,greentriangle1.png,6.0,1.0,5.0,,,,{button1},0.0,,,,,,,0.0,TrialProc,ColorList,,,,,,,1.0,{button1},2.0,33.0,100446.0,0.0,{Button1},1266.0,Color
Wisconsin,1155,4,"<?xml version=""1.0""?>\n<Clock xmlns:dt=""urn:schemas-microsoft-com:datatypes""><Description dt:dt=""string"">E-Prime Primary Realtime Clock</Description><StartTime><Timestamp dt:dt=""int"">0</Timestamp><DateUtc dt:dt=""string"">2023-02-11T03:28:40Z</DateUtc></StartTime><FrequencyChanges><FrequencyChange><Frequency dt:dt=""r8"">10000000</Frequency><Timestamp dt:dt=""r8"">607444700569</Timestamp><Current dt:dt=""r8"">0</Current><DateUtc dt:dt=""string"">2023-02-11T03:28:40Z</DateUtc></FrequencyChange></FrequencyChanges></Clock>\n",Wisconsin-1155-4,60.039,1.0.0.262,1,1857011325,3.0.3.80,3.0.3.80,02-11-2023,2/11/2023 3:28:41 AM,11:28:41,3.0.3.82,2,,,,1.0,1.0,1.0,BlockProc,List2,1,,,,,,,,,,,,,,,,,1.0,1.0,1.0,,,,,,,ColorProc,List3,,,,,,,,,6.0,BUTTON1.png,BUTTON2.PNG,BUTTON3.png,BUTTON4.png,yellowcircle1.png,9.0,1.0,6.0,,,,{button2},0.0,,,,,,,0.0,TrialProc,ColorList,,,,,,,1.0,{button2},9.0,34.0,104279.0,0.0,{Button2},1466.0,Color
Wisconsin,1155,4,"<?xml version=""1.0""?>\n<Clock xmlns:dt=""urn:schemas-microsoft-com:datatypes""><Description dt:dt=""string"">E-Prime Primary Realtime Clock</Description><StartTime><Timestamp dt:dt=""int"">0</Timestamp><DateUtc dt:dt=""string"">2023-02-11T03:28:40Z</DateUtc></StartTime><FrequencyChanges><FrequencyChange><Frequency dt:dt=""r8"">10000000</Frequency><Timestamp dt:dt=""r8"">607444700569</Timestamp><Current dt:dt=""r8"">0</Current><DateUtc dt:dt=""string"">2023-02-11T03:28:40Z</DateUtc></FrequencyChange></FrequencyChanges></Clock>\n",Wisconsin-1155-4,60.039,1.0.0.262,1,1857011325,3.0.3.80,3.0.3.80,02-11-2023,2/11/2023 3:28:41 AM,11:28:41,3.0.3.82,2,,,,1.0,1.0,1.0,BlockProc,List2,1,,,,,,,,,,,,,,,,,1.0,1.0,1.0,,,,,,,ColorProc,List3,,,,,,,,,7.0,BUTTON1.png,BUTTON2.PNG,BUTTON3.png,BUTTON4.png,yellowstar3.png,10.0,1.0,7.0,,,,{button2},0.0,,,,,,,0.0,TrialProc,ColorList,,,,,,,1.0,{button2},9.0,33.0,108311.0,0.0,{Button2},833.0,Color
Wisconsin,1155,4,"<?xml version=""1.0""?>\n<Clock xmlns:dt=""urn:schemas-microsoft-com:datatypes""><Description dt:dt=""string"">E-Prime Primary Realtime Clock</Description><StartTime><Timestamp dt:dt=""int"">0</Timestamp><DateUtc dt:dt=""string"">2023-02-11T03:28:40Z</DateUtc></StartTime><FrequencyChanges><FrequencyChange><Frequency dt:dt=""r8"">10000000</Frequency><Timestamp dt:dt=""r8"">607444700569</Timestamp><Current dt:dt=""r8"">0</Current><DateUtc dt:dt=""string"">2023-02-11T03:28:40Z</DateUtc></FrequencyChange></FrequencyChanges></Clock>\n",Wisconsin-1155-4,60.039,1.0.0.262,1,1857011325,3.0.3.80,3.0.3.80,02-11-2023,2/11/2023 3:28:41 AM,11:28:41,3.0.3.82,2,,,,1.0,1.0,1.0,BlockProc,List2,1,,,,,,,,,,,,,,,,,1.0,1.0,1.0,,,,,,,ColorProc,List3,,,,,,,,,8.0,BUTTON1.png,BUTTON2.PNG,BUTTON3.png,BUTTON4.png,greencircle3.png,4.0,1.0,8.0,,,,{button1},0.0,,,,,,,0.0,TrialProc,ColorList,,,,,,,1.0,{button1},9.0,33.0,111727.0,0.0,{Button1},1025.0,Color
Wisconsin,1155,4,"<?xml version=""1.0""?>\n<Clock xmlns:dt=""urn:schemas-microsoft-com:datatypes""><Description dt:dt=""string"">E-Prime Primary Realtime Clock</Description><StartTime><Timestamp dt:dt=""int"">0</Timestamp><DateUtc dt:dt=""string"">2023-02-11T03:28:40Z</DateUtc></StartTime><FrequencyChanges><FrequencyChange><Frequency dt:dt=""r8"">10000000</Frequency><Timestamp dt:dt=""r8"">607444700569</Timestamp><Current dt:dt=""r8"">0</Current><DateUtc dt:dt=""string"">2023-02-11T03:28:40Z</DateUtc></FrequencyChange></FrequencyChanges></Clock>\n",Wisconsin-1155-4,60.039,1.0.0.262,1,1857011325,3.0.3.80,3.0.3.80,02-11-2023,2/11/2023 3:28:41 AM,11:28:41,3.0.3.82,2,,,,1.0,1.0,1.0,BlockProc,List2,1,,,,,,,,,,,,,,,,,1.0,1.0,1.0,,,,,,,ColorProc,List3,,,,,,,,,9.0,BUTTON1.png,BUTTON2.PNG,BUTTON3.png,BUTTON4.png,bluecircle1.png,1.0,1.0,9.0,,,,{button4},0.0,,,,,,,0.0,TrialProc,ColorList,,,,,,,1.0,{button4},9.0,33.0,115326.0,0.0,{Button4},1763.0,Color
Wisconsin,1155,4,"<?xml version=""1.0""?>\n<Clock xmlns:dt=""urn:schemas-microsoft-com:datatypes""><Description dt:dt=""string"">E-Prime Primary Realtime Clock</Description><StartTime><Timestamp dt:dt=""int"">0</Timestamp><DateUtc dt:dt=""string"">2023-02-11T03:28:40Z</DateUtc></StartTime><FrequencyChanges><FrequencyChange><Frequency dt:dt=""r8"">10000000</Frequency><Timestamp dt:dt=""r8"">607444700569</Timestamp><Current dt:dt=""r8"">0</Current><DateUtc dt:dt=""string"">2023-02-11T03:28:40Z</DateUtc></FrequencyChange></FrequencyChanges></Clock>\n",Wisconsin-1155-4,60.039,1.0.0.262,1,1857011325,3.0.3.80,3.0.3.80,02-11-2023,2/11/2023 3:28:41 AM,11:28:41,3.0.3.82,2,,,,1.0,1.0,1.0,BlockProc,List2,1,,,,,,,,,,,,,,,,,1.0,1.0,1.0,,,,,,,ColorProc,List3,,,,,,,,,10.0,BUTTON1.png,BUTTON2.PNG,BUTTON3.png,BUTTON4.png,redcircle3.png,8.0,1.0,10.0,,,,{button3},0.0,,,,,,,0.0,TrialProc,ColorList,,,,,,,1.0,{button3},10.0,49.0,119691.0,0.0,{Button3},733.0,Color
Wisconsin,1155,4,"<?xml version=""1.0""?>\n<Clock xmlns:dt=""urn:schemas-microsoft-com:datatypes""><Description dt:dt=""string"">E-Prime Primary Realtime Clock</Description><StartTime><Timestamp dt:dt=""int"">0</Timestamp><DateUtc dt:dt=""string"">2023-02-11T03:28:40Z</DateUtc></StartTime><FrequencyChanges><FrequencyChange><Frequency dt:dt=""r8"">10000000</Frequency><Timestamp dt:dt=""r8"">607444700569</Timestamp><Current dt:dt=""r8"">0</Current><DateUtc dt:dt=""string"">2023-02-11T03:28:40Z</DateUtc></FrequencyChange></FrequencyChanges></Clock>\n",Wisconsin-1155-4,60.039,1.0.0.262,1,1857011325,3.0.3.80,3.0.3.80,02-11-2023,2/11/2023 3:28:41 AM,11:28:41,3.0.3.82,2,,,,2.0,1.0,2.0,BlockProc,List2,2,,,,,,,,,,,,,,,,,1.0,1.0,1.0,,,,,,,ShapeProc,List3,,,,,,,,,1.0,Button1.png,Button2.png,Button3.png,Button4.png,Bluecross4.png,,,,,,,{Button3},0.0,,,,,,,0.0,TrialProc,ShapeList,2.0,1.0,1.0,,,,0.0,{Button3},10.0,33.0,123007.0,0.0,{Button4},2017.0,Shape
Wisconsin,1155,4,"<?xml version=""1.0""?>\n<Clock xmlns:dt=""urn:schemas-microsoft-com:datatypes""><Description dt:dt=""string"">E-Prime Primary Realtime Clock</Description><StartTime><Timestamp dt:dt=""int"">0</Timestamp><DateUtc dt:dt=""string"">2023-02-11T03:28:40Z</DateUtc></StartTime><FrequencyChanges><FrequencyChange><Frequency dt:dt=""r8"">10000000</Frequency><Timestamp dt:dt=""r8"">607444700569</Timestamp><Current dt:dt=""r8"">0</Current><DateUtc dt:dt=""string"">2023-02-11T03:28:40Z</DateUtc></FrequencyChange></FrequencyChanges></Clock>\n",Wisconsin-1155-4,60.039,1.0.0.262,1,1857011325,3.0.3.80,3.0.3.80,02-11-2023,2/11/2023 3:28:41 AM,11:28:41,3.0.3.82,2,,,,2.0,1.0,2.0,BlockProc,List2,2,,,,,,,,,,,,,,,,,1.0,1.0,1.0,,,,,,,ShapeProc,List3,,,,,,,,,2.0,Button1.png,Button2.png,Button3.png,Button4.png,Redcross4.png,,,,,,,{Button3},0.0,,,,,,,0.0,TrialProc,ShapeList,6.0,1.0,2.0,,,,1.0,{Button3},10.0,33.0,127606.0,0.0,{Button3},1082.0,Shape
Wisconsin,1155,4,"<?xml version=""1.0""?>\n<Clock xmlns:dt=""urn:schemas-microsoft-com:datatypes""><Description dt:dt=""string"">E-Prime Primary Realtime Clock</Description><StartTime><Timestamp dt:dt=""int"">0</Timestamp><DateUtc dt:dt=""string"">2023-02-11T03:28:40Z</DateUtc></StartTime><FrequencyChanges><FrequencyChange><Frequency dt:dt=""r8"">10000000</Frequency><Timestamp dt:dt=""r8"">607444700569</Timestamp><Current dt:dt=""r8"">0</Current><DateUtc dt:dt=""string"">2023-02-11T03:28:40Z</DateUtc></FrequencyChange></FrequencyChanges></Clock>\n",Wisconsin-1155-4,60.039,1.0.0.262,1,1857011325,3.0.3.80,3.0.3.80,02-11-2023,2/11/2023 3:28:41 AM,11:28:41,3.0.3.82,2,,,,2.0,1.0,2.0,BlockProc,List2,2,,,,,,,,,,,,,,,,,1.0,1.0,1.0,,,,,,,ShapeProc,List3,,,,,,,,,3.0,Button1.png,Button2.png,Button3.png,Button4.png,Greentriangle4.png,,,,,,,{Button2},0.0,,,,,,,0.0,TrialProc,ShapeList,4.0,1.0,3.0,,,,1.0,{Button2},10.0,33.0,131272.0,0.0,{Button2},3360.0,Shape
Wisconsin,1155,4,"<?xml version=""1.0""?>\n<Clock xmlns:dt=""urn:schemas-microsoft-com:datatypes""><Description dt:dt=""string"">E-Prime Primary Realtime Clock</Description><StartTime><Timestamp dt:dt=""int"">0</Timestamp><DateUtc dt:dt=""string"">2023-02-11T03:28:40Z</DateUtc></StartTime><FrequencyChanges><FrequencyChange><Frequency dt:dt=""r8"">10000000</Frequency><Timestamp dt:dt=""r8"">607444700569</Timestamp><Current dt:dt=""r8"">0</Current><DateUtc dt:dt=""string"">2023-02-11T03:28:40Z</DateUtc></FrequencyChange></FrequencyChanges></Clock>\n",Wisconsin-1155-4,60.039,1.0.0.262,1,1857011325,3.0.3.80,3.0.3.80,02-11-2023,2/11/2023 3:28:41 AM,11:28:41,3.0.3.82,2,,,,2.0,1.0,2.0,BlockProc,List2,2,,,,,,,,,,,,,,,,,1.0,1.0,1.0,,,,,,,ShapeProc,List3,,,,,,,,,4.0,Button1.png,Button2.png,Button3.png,Button4.png,Redtriangle1.png,,,,,,,{Button2},0.0,,,,,,,0.0,TrialProc,ShapeList,7.0,1.0,4.0,,,,1.0,{Button2},9.0,33.0,137204.0,0.0,{Button2},868.0,Shape
Wisconsin,1155,4,"<?xml version=""1.0""?>\n<Clock xmlns:dt=""urn:schemas-microsoft-com:datatypes""><Description dt:dt=""string"">E-Prime Primary Realtime Clock</Description><StartTime><Timestamp dt:dt=""int"">0</Timestamp><DateUtc dt:dt=""string"">2023-02-11T03:28:40Z</DateUtc></StartTime><FrequencyChanges><FrequencyChange><Frequency dt:dt=""r8"">10000000</Frequency><Timestamp dt:dt=""r8"">607444700569</Timestamp><Current dt:dt=""r8"">0</Current><DateUtc dt:dt=""string"">2023-02-11T03:28:40Z</DateUtc></FrequencyChange></FrequencyChanges></Clock>\n",Wisconsin-1155-4,60.039,1.0.0.262,1,1857011325,3.0.3.80,3.0.3.80,02-11-2023,2/11/2023 3:28:41 AM,11:28:41,3.0.3.82,2,,,,2.0,1.0,2.0,BlockProc,List2,2,,,,,,,,,,,,,,,,,1.0,1.0,1.0,,,,,,,ShapeProc,List3,,,,,,,,,5.0,Button1.png,Button2.png,Button3.png,Button4.png,Yellowstar1.png,,,,,,,{Button4},0.0,,,,,,,0.0,TrialProc,ShapeList,9.0,1.0,5.0,,,,1.0,{Button4},9.0,33.0,140653.0,0.0,{Button4},2115.0,Shape
Wisconsin,1155,4,"<?xml version=""1.0""?>\n<Clock xmlns:dt=""urn:schemas-microsoft-com:datatypes""><Description dt:dt=""string"">E-Prime Primary Realtime Clock</Description><StartTime><Timestamp dt:dt=""int"">0</Timestamp><DateUtc dt:dt=""string"">2023-02-11T03:28:40Z</DateUtc></StartTime><FrequencyChanges><FrequencyChange><Frequency dt:dt=""r8"">10000000</Frequency><Timestamp dt:dt=""r8"">607444700569</Timestamp><Current dt:dt=""r8"">0</Current><DateUtc dt:dt=""string"">2023-02-11T03:28:40Z</DateUtc></FrequencyChange></FrequencyChanges></Clock>\n",Wisconsin-1155-4,60.039,1.0.0.262,1,1857011325,3.0.3.80,3.0.3.80,02-11-2023,2/11/2023 3:28:41 AM,11:28:41,3.0.3.82,2,,,,2.0,1.0,2.0,BlockProc,List2,2,,,,,,,,,,,,,,,,,1.0,1.0,1.0,,,,,,,ShapeProc,List3,,,,,,,,,6.0,Button1.png,Button2.png,Button3.png,Button4.png,Redcross1.png,,,,,,,{Button3},0.0,,,,,,,0.0,TrialProc,ShapeList,5.0,1.0,6.0,,,,1.0,{Button3},1.0,33.0,145352.0,0.0,{Button3},1192.0,Shape
Wisconsin,1155,4,"<?xml version=""1.0""?>\n<Clock xmlns:dt=""urn:schemas-microsoft-com:datatypes""><Description dt:dt=""string"">E-Prime Primary Realtime Clock</Description><StartTime><Timestamp dt:dt=""int"">0</Timestamp><DateUtc dt:dt=""string"">2023-02-11T03:28:40Z</DateUtc></StartTime><FrequencyChanges><FrequencyChange><Frequency dt:dt=""r8"">10000000</Frequency><Timestamp dt:dt=""r8"">607444700569</Timestamp><Current dt:dt=""r8"">0</Current><DateUtc dt:dt=""string"">2023-02-11T03:28:40Z</DateUtc></FrequencyChange></FrequencyChanges></Clock>\n",Wisconsin-1155-4,60.039,1.0.0.262,1,1857011325,3.0.3.80,3.0.3.80,02-11-2023,2/11/2023 3:28:41 AM,11:28:41,3.0.3.82,2,,,,2.0,1.0,2.0,BlockProc,List2,2,,,,,,,,,,,,,,,,,1.0,1.0,1.0,,,,,,,ShapeProc,List3,,,,,,,,,7.0,Button1.png,Button2.png,Button3.png,Button4.png,Yellowstar4.png,,,,,,,{Button4},0.0,,,,,,,0.0,TrialProc,ShapeList,10.0,1.0,7.0,,,,1.0,{Button4},9.0,34.0,149118.0,0.0,{Button4},1955.0,Shape
Wisconsin,1155,4,"<?xml version=""1.0""?>\n<Clock xmlns:dt=""urn:schemas-microsoft-com:datatypes""><Description dt:dt=""string"">E-Prime Primary Realtime Clock</Description><StartTime><Timestamp dt:dt=""int"">0</Timestamp><DateUtc dt:dt=""string"">2023-02-11T03:28:40Z</DateUtc></StartTime><FrequencyChanges><FrequencyChange><Frequency dt:dt=""r8"">10000000</Frequency><Timestamp dt:dt=""r8"">607444700569</Timestamp><Current dt:dt=""r8"">0</Current><DateUtc dt:dt=""string"">2023-02-11T03:28:40Z</DateUtc></FrequencyChange></FrequencyChanges></Clock>\n",Wisconsin-1155-4,60.039,1.0.0.262,1,1857011325,3.0.3.80,3.0.3.80,02-11-2023,2/11/2023 3:28:41 AM,11:28:41,3.0.3.82,2,,,,2.0,1.0,2.0,BlockProc,List2,2,,,,,,,,,,,,,,,,,1.0,1.0,1.0,,,,,,,ShapeProc,List3,,,,,,,,,8.0,Button1.png,Button2.png,Button3.png,Button4.png,Greencross1.png,,,,,,,{Button3},0.0,,,,,,,0.0,TrialProc,ShapeList,3.0,1.0,8.0,,,,1.0,{Button3},10.0,49.0,153666.0,0.0,{Button3},2006.0,Shape
Wisconsin,1155,4,"<?xml version=""1.0""?>\n<Clock xmlns:dt=""urn:schemas-microsoft-com:datatypes""><Description dt:dt=""string"">E-Prime Primary Realtime Clock</Description><StartTime><Timestamp dt:dt=""int"">0</Timestamp><DateUtc dt:dt=""string"">2023-02-11T03:28:40Z</DateUtc></StartTime><FrequencyChanges><FrequencyChange><Frequency dt:dt=""r8"">10000000</Frequency><Timestamp dt:dt=""r8"">607444700569</Timestamp><Current dt:dt=""r8"">0</Current><DateUtc dt:dt=""string"">2023-02-11T03:28:40Z</DateUtc></FrequencyChange></FrequencyChanges></Clock>\n",Wisconsin-1155-4,60.039,1.0.0.262,1,1857011325,3.0.3.80,3.0.3.80,02-11-2023,2/11/2023 3:28:41 AM,11:28:41,3.0.3.82,2,,,,2.0,1.0,2.0,BlockProc,List2,2,,,,,,,,,,,,,,,,,1.0,1.0,1.0,,,,,,,ShapeProc,List3,,,,,,,,,9.0,Button1.png,Button2.png,Button3.png,Button4.png,Bluecircle2.png,,,,,,,{Button1},0.0,,,,,,,0.0,TrialProc,ShapeList,1.0,1.0,9.0,,,,1.0,{Button1},1.0,33.0,158249.0,0.0,{Button1},1519.0,Shape
Wisconsin,1155,4,"<?xml version=""1.0""?>\n<Clock xmlns:dt=""urn:schemas-microsoft-com:datatypes""><Description dt:dt=""string"">E-Prime Primary Realtime Clock</Description><StartTime><Timestamp dt:dt=""int"">0</Timestamp><DateUtc dt:dt=""string"">2023-02-11T03:28:40Z</DateUtc></StartTime><FrequencyChanges><FrequencyChange><Frequency dt:dt=""r8"">10000000</Frequency><Timestamp dt:dt=""r8"">607444700569</Timestamp><Current dt:dt=""r8"">0</Current><DateUtc dt:dt=""string"">2023-02-11T03:28:40Z</DateUtc></FrequencyChange></FrequencyChanges></Clock>\n",Wisconsin-1155-4,60.039,1.0.0.262,1,1857011325,3.0.3.80,3.0.3.80,02-11-2023,2/11/2023 3:28:41 AM,11:28:41,3.0.3.82,2,,,,2.0,1.0,2.0,BlockProc,List2,2,,,,,,,,,,,,,,,,,1.0,1.0,1.0,,,,,,,ShapeProc,List3,,,,,,,,,10.0,Button1.png,Button2.png,Button3.png,Button4.png,yellowcircle3.png,,,,,,,{Button1},0.0,,,,,,,0.0,TrialProc,ShapeList,8.0,1.0,10.0,,,,1.0,{Button1},9.0,33.0,162348.0,0.0,{Button1},861.0,Shape
Wisconsin,1155,4,"<?xml version=""1.0""?>\n<Clock xmlns:dt=""urn:schemas-microsoft-com:datatypes""><Description dt:dt=""string"">E-Prime Primary Realtime Clock</Description><StartTime><Timestamp dt:dt=""int"">0</Timestamp><DateUtc dt:dt=""string"">2023-02-11T03:28:40Z</DateUtc></StartTime><FrequencyChanges><FrequencyChange><Frequency dt:dt=""r8"">10000000</Frequency><Timestamp dt:dt=""r8"">607444700569</Timestamp><Current dt:dt=""r8"">0</Current><DateUtc dt:dt=""string"">2023-02-11T03:28:40Z</DateUtc></FrequencyChange></FrequencyChanges></Clock>\n",Wisconsin-1155-4,60.039,1.0.0.262,1,1857011325,3.0.3.80,3.0.3.80,02-11-2023,2/11/2023 3:28:41 AM,11:28:41,3.0.3.82,2,,,,3.0,1.0,3.0,BlockProc,List2,3,,,,,,,,,,,,,,,,,1.0,1.0,1.0,,,,,,,NumberProc,List3,,,,,,,,,1.0,Button1.png,Button2.png,Button3.png,Button4.png,Greencross3.png,,,,,,,{Button3},0.0,5.0,1.0,1.0,,,,0.0,TrialProc,NumberList,,,,,,,1.0,{Button3},10.0,33.0,165780.0,0.0,{Button3},1220.0,number
Wisconsin,1155,4,"<?xml version=""1.0""?>\n<Clock xmlns:dt=""urn:schemas-microsoft-com:datatypes""><Description dt:dt=""string"">E-Prime Primary Realtime Clock</Description><StartTime><Timestamp dt:dt=""int"">0</Timestamp><DateUtc dt:dt=""string"">2023-02-11T03:28:40Z</DateUtc></StartTime><FrequencyChanges><FrequencyChange><Frequency dt:dt=""r8"">10000000</Frequency><Timestamp dt:dt=""r8"">607444700569</Timestamp><Current dt:dt=""r8"">0</Current><DateUtc dt:dt=""string"">2023-02-11T03:28:40Z</DateUtc></FrequencyChange></FrequencyChanges></Clock>\n",Wisconsin-1155-4,60.039,1.0.0.262,1,1857011325,3.0.3.80,3.0.3.80,02-11-2023,2/11/2023 3:28:41 AM,11:28:41,3.0.3.82,2,,,,3.0,1.0,3.0,BlockProc,List2,3,,,,,,,,,,,,,,,,,1.0,1.0,1.0,,,,,,,NumberProc,List3,,,,,,,,,2.0,Button1.png,Button2.png,Button3.png,Button4.png,Bluestar2.png,,,,,,,{Button1},0.0,2.0,1.0,2.0,,,,0.0,TrialProc,NumberList,,,,,,,0.0,{Button1},2.0,33.0,169579.0,0.0,{Button4},1405.0,number
Wisconsin,1155,4,"<?xml version=""1.0""?>\n<Clock xmlns:dt=""urn:schemas-microsoft-com:datatypes""><Description dt:dt=""string"">E-Prime Primary Realtime Clock</Description><StartTime><Timestamp dt:dt=""int"">0</Timestamp><DateUtc dt:dt=""string"">2023-02-11T03:28:40Z</DateUtc></StartTime><FrequencyChanges><FrequencyChange><Frequency dt:dt=""r8"">10000000</Frequency><Timestamp dt:dt=""r8"">607444700569</Timestamp><Current dt:dt=""r8"">0</Current><DateUtc dt:dt=""string"">2023-02-11T03:28:40Z</DateUtc></FrequencyChange></FrequencyChanges></Clock>\n",Wisconsin-1155-4,60.039,1.0.0.262,1,1857011325,3.0.3.80,3.0.3.80,02-11-2023,2/11/2023 3:28:41 AM,11:28:41,3.0.3.82,2,,,,3.0,1.0,3.0,BlockProc,List2,3,,,,,,,,,,,,,,,,,1.0,1.0,1.0,,,,,,,NumberProc,List3,,,,,,,,,3.0,Button1.png,Button2.png,Button3.png,Button4.png,Yellowcross3.png,,,,,,,{Button3},0.0,10.0,1.0,3.0,,,,0.0,TrialProc,NumberList,,,,,,,1.0,{Button3},1.0,34.0,173562.0,0.0,{Button3},1239.0,number
Wisconsin,1155,4,"<?xml version=""1.0""?>\n<Clock xmlns:dt=""urn:schemas-microsoft-com:datatypes""><Description dt:dt=""string"">E-Prime Primary Realtime Clock</Description><StartTime><Timestamp dt:dt=""int"">0</Timestamp><DateUtc dt:dt=""string"">2023-02-11T03:28:40Z</DateUtc></StartTime><FrequencyChanges><FrequencyChange><Frequency dt:dt=""r8"">10000000</Frequency><Timestamp dt:dt=""r8"">607444700569</Timestamp><Current dt:dt=""r8"">0</Current><DateUtc dt:dt=""string"">2023-02-11T03:28:40Z</DateUtc></FrequencyChange></FrequencyChanges></Clock>\n",Wisconsin-1155-4,60.039,1.0.0.262,1,1857011325,3.0.3.80,3.0.3.80,02-11-2023,2/11/2023 3:28:41 AM,11:28:41,3.0.3.82,2,,,,3.0,1.0,3.0,BlockProc,List2,3,,,,,,,,,,,,,,,,,1.0,1.0,1.0,,,,,,,NumberProc,List3,,,,,,,,,4.0,Button1.png,Button2.png,Button3.png,Button4.png,Redstar2.png,,,,,,,{Button1},0.0,7.0,1.0,4.0,,,,0.0,TrialProc,NumberList,,,,,,,1.0,{Button1},10.0,50.0,177394.0,0.0,{Button1},1782.0,number
Wisconsin,1155,4,"<?xml version=""1.0""?>\n<Clock xmlns:dt=""urn:schemas-microsoft-com:datatypes""><Description dt:dt=""string"">E-Prime Primary Realtime Clock</Description><StartTime><Timestamp dt:dt=""int"">0</Timestamp><DateUtc dt:dt=""string"">2023-02-11T03:28:40Z</DateUtc></StartTime><FrequencyChanges><FrequencyChange><Frequency dt:dt=""r8"">10000000</Frequency><Timestamp dt:dt=""r8"">607444700569</Timestamp><Current dt:dt=""r8"">0</Current><DateUtc dt:dt=""string"">2023-02-11T03:28:40Z</DateUtc></FrequencyChange></FrequencyChanges></Clock>\n",Wisconsin-1155-4,60.039,1.0.0.262,1,1857011325,3.0.3.80,3.0.3.80,02-11-2023,2/11/2023 3:28:41 AM,11:28:41,3.0.3.82,2,,,,3.0,1.0,3.0,BlockProc,List2,3,,,,,,,,,,,,,,,,,1.0,1.0,1.0,,,,,,,NumberProc,List3,,,,,,,,,5.0,Button1.png,Button2.png,Button3.png,Button4.png,Redtriangle4.png,,,,,,,{Button2},0.0,8.0,1.0,5.0,,,,0.0,TrialProc,NumberList,,,,,,,1.0,{Button2},10.0,33.0,181760.0,0.0,{Button2},936.0,number
Wisconsin,1155,4,"<?xml version=""1.0""?>\n<Clock xmlns:dt=""urn:schemas-microsoft-com:datatypes""><Description dt:dt=""string"">E-Prime Primary Realtime Clock</Description><StartTime><Timestamp dt:dt=""int"">0</Timestamp><DateUtc dt:dt=""string"">2023-02-11T03:28:40Z</DateUtc></StartTime><FrequencyChanges><FrequencyChange><Frequency dt:dt=""r8"">10000000</Frequency><Timestamp dt:dt=""r8"">607444700569</Timestamp><Current dt:dt=""r8"">0</Current><DateUtc dt:dt=""string"">2023-02-11T03:28:40Z</DateUtc></FrequencyChange></FrequencyChanges></Clock>\n",Wisconsin-1155-4,60.039,1.0.0.262,1,1857011325,3.0.3.80,3.0.3.80,02-11-2023,2/11/2023 3:28:41 AM,11:28:41,3.0.3.82,2,,,,3.0,1.0,3.0,BlockProc,List2,3,,,,,,,,,,,,,,,,,1.0,1.0,1.0,,,,,,,NumberProc,List3,,,,,,,,,6.0,Button1.png,Button2.png,Button3.png,Button4.png,Yellowcross1.png,,,,,,,{Button4},0.0,9.0,1.0,6.0,,,,0.0,TrialProc,NumberList,,,,,,,1.0,{Button4},10.0,33.0,185275.0,0.0,{Button4},1541.0,number
Wisconsin,1155,4,"<?xml version=""1.0""?>\n<Clock xmlns:dt=""urn:schemas-microsoft-com:datatypes""><Description dt:dt=""string"">E-Prime Primary Realtime Clock</Description><StartTime><Timestamp dt:dt=""int"">0</Timestamp><DateUtc dt:dt=""string"">2023-02-11T03:28:40Z</DateUtc></StartTime><FrequencyChanges><FrequencyChange><Frequency dt:dt=""r8"">10000000</Frequency><Timestamp dt:dt=""r8"">607444700569</Timestamp><Current dt:dt=""r8"">0</Current><DateUtc dt:dt=""string"">2023-02-11T03:28:40Z</DateUtc></FrequencyChange></FrequencyChanges></Clock>\n",Wisconsin-1155-4,60.039,1.0.0.262,1,1857011325,3.0.3.80,3.0.3.80,02-11-2023,2/11/2023 3:28:41 AM,11:28:41,3.0.3.82,2,,,,3.0,1.0,3.0,BlockProc,List2,3,,,,,,,,,,,,,,,,,1.0,1.0,1.0,,,,,,,NumberProc,List3,,,,,,,,,7.0,Button1.png,Button2.png,Button3.png,Button4.png,Bluecircle4.png,,,,,,,{Button2},0.0,1.0,1.0,7.0,,,,0.0,TrialProc,NumberList,,,,,,,1.0,{Button2},9.0,33.0,189391.0,0.0,{Button2},1289.0,number
Wisconsin,1155,4,"<?xml version=""1.0""?>\n<Clock xmlns:dt=""urn:schemas-microsoft-com:datatypes""><Description dt:dt=""string"">E-Prime Primary Realtime Clock</Description><StartTime><Timestamp dt:dt=""int"">0</Timestamp><DateUtc dt:dt=""string"">2023-02-11T03:28:40Z</DateUtc></StartTime><FrequencyChanges><FrequencyChange><Frequency dt:dt=""r8"">10000000</Frequency><Timestamp dt:dt=""r8"">607444700569</Timestamp><Current dt:dt=""r8"">0</Current><DateUtc dt:dt=""string"">2023-02-11T03:28:40Z</DateUtc></FrequencyChange></FrequencyChanges></Clock>\n",Wisconsin-1155-4,60.039,1.0.0.262,1,1857011325,3.0.3.80,3.0.3.80,02-11-2023,2/11/2023 3:28:41 AM,11:28:41,3.0.3.82,2,,,,3.0,1.0,3.0,BlockProc,List2,3,,,,,,,,,,,,,,,,,1.0,1.0,1.0,,,,,,,NumberProc,List3,,,,,,,,,8.0,Button1.png,Button2.png,Button3.png,Button4.png,Bluetriangle1.png,,,,,,,{Button4},0.0,3.0,1.0,8.0,,,,0.0,TrialProc,NumberList,,,,,,,1.0,{Button4},10.0,33.0,193257.0,0.0,{Button4},1687.0,number
Wisconsin,1155,4,"<?xml version=""1.0""?>\n<Clock xmlns:dt=""urn:schemas-microsoft-com:datatypes""><Description dt:dt=""string"">E-Prime Primary Realtime Clock</Description><StartTime><Timestamp dt:dt=""int"">0</Timestamp><DateUtc dt:dt=""string"">2023-02-11T03:28:40Z</DateUtc></StartTime><FrequencyChanges><FrequencyChange><Frequency dt:dt=""r8"">10000000</Frequency><Timestamp dt:dt=""r8"">607444700569</Timestamp><Current dt:dt=""r8"">0</Current><DateUtc dt:dt=""string"">2023-02-11T03:28:40Z</DateUtc></FrequencyChange></FrequencyChanges></Clock>\n",Wisconsin-1155-4,60.039,1.0.0.262,1,1857011325,3.0.3.80,3.0.3.80,02-11-2023,2/11/2023 3:28:41 AM,11:28:41,3.0.3.82,2,,,,3.0,1.0,3.0,BlockProc,List2,3,,,,,,,,,,,,,,,,,1.0,1.0,1.0,,,,,,,NumberProc,List3,,,,,,,,,9.0,Button1.png,Button2.png,Button3.png,Button4.png,Greencircle4.png,,,,,,,{Button2},0.0,4.0,1.0,9.0,,,,0.0,TrialProc,NumberList,,,,,,,1.0,{Button2},9.0,33.0,197522.0,0.0,{Button2},1734.0,number
Wisconsin,1155,4,"<?xml version=""1.0""?>\n<Clock xmlns:dt=""urn:schemas-microsoft-com:datatypes""><Description dt:dt=""string"">E-Prime Primary Realtime Clock</Description><StartTime><Timestamp dt:dt=""int"">0</Timestamp><DateUtc dt:dt=""string"">2023-02-11T03:28:40Z</DateUtc></StartTime><FrequencyChanges><FrequencyChange><Frequency dt:dt=""r8"">10000000</Frequency><Timestamp dt:dt=""r8"">607444700569</Timestamp><Current dt:dt=""r8"">0</Current><DateUtc dt:dt=""string"">2023-02-11T03:28:40Z</DateUtc></FrequencyChange></FrequencyChanges></Clock>\n",Wisconsin-1155-4,60.039,1.0.0.262,1,1857011325,3.0.3.80,3.0.3.80,02-11-2023,2/11/2023 3:28:41 AM,11:28:41,3.0.3.82,2,,,,3.0,1.0,3.0,BlockProc,List2,3,,,,,,,,,,,,,,,,,1.0,1.0,1.0,,,,,,,NumberProc,List3,,,,,,,,,10.0,Button1.png,Button2.png,Button3.png,Button4.png,Redcircle4.png,,,,,,,{Button2},0.0,6.0,1.0,10.0,,,,0.0,TrialProc,NumberList,,,,,,,1.0,{Button2},9.0,33.0,201838.0,0.0,{Button2},986.0,number
Wisconsin,1155,4,"<?xml version=""1.0""?>\n<Clock xmlns:dt=""urn:schemas-microsoft-com:datatypes""><Description dt:dt=""string"">E-Prime Primary Realtime Clock</Description><StartTime><Timestamp dt:dt=""int"">0</Timestamp><DateUtc dt:dt=""string"">2023-02-11T03:28:40Z</DateUtc></StartTime><FrequencyChanges><FrequencyChange><Frequency dt:dt=""r8"">10000000</Frequency><Timestamp dt:dt=""r8"">607444700569</Timestamp><Current dt:dt=""r8"">0</Current><DateUtc dt:dt=""string"">2023-02-11T03:28:40Z</DateUtc></FrequencyChange></FrequencyChanges></Clock>\n",Wisconsin-1155-4,60.039,1.0.0.262,1,1857011325,3.0.3.80,3.0.3.80,02-11-2023,2/11/2023 3:28:41 AM,11:28:41,3.0.3.82,3,,,,,,,BlockProc2,List2,1,,,,,,,,,,,,,,,,,2.0,1.0,2.0,1.0,1.0,1.0,,,,ColorProc2,List4,,,,,,,,,1.0,BUTTON1.png,BUTTON2.PNG,BUTTON3.png,BUTTON4.png,Greencircle1.png,,,,3.0,1.0,1.0,{Button1},0.0,,,,,,,0.0,TrialProc,ColorList2,,,,,,,0.0,{Button1},9.0,33.0,205404.0,0.0,{Button4},1980.0,color
Wisconsin,1155,4,"<?xml version=""1.0""?>\n<Clock xmlns:dt=""urn:schemas-microsoft-com:datatypes""><Description dt:dt=""string"">E-Prime Primary Realtime Clock</Description><StartTime><Timestamp dt:dt=""int"">0</Timestamp><DateUtc dt:dt=""string"">2023-02-11T03:28:40Z</DateUtc></StartTime><FrequencyChanges><FrequencyChange><Frequency dt:dt=""r8"">10000000</Frequency><Timestamp dt:dt=""r8"">607444700569</Timestamp><Current dt:dt=""r8"">0</Current><DateUtc dt:dt=""string"">2023-02-11T03:28:40Z</DateUtc></FrequencyChange></FrequencyChanges></Clock>\n",Wisconsin-1155-4,60.039,1.0.0.262,1,1857011325,3.0.3.80,3.0.3.80,02-11-2023,2/11/2023 3:28:41 AM,11:28:41,3.0.3.82,3,,,,,,,BlockProc2,List2,1,,,,,,,,,,,,,,,,,2.0,1.0,2.0,1.0,1.0,1.0,,,,ColorProc2,List4,,,,,,,,,2.0,BUTTON1.png,BUTTON2.PNG,BUTTON3.png,BUTTON4.png,bluecross1.png,,,,1.0,1.0,2.0,{Button4},0.0,,,,,,,0.0,TrialProc,ColorList2,,,,,,,0.0,{Button4},2.0,33.0,209969.0,5016.0,,0.0,color
Wisconsin,1155,4,"<?xml version=""1.0""?>\n<Clock xmlns:dt=""urn:schemas-microsoft-com:datatypes""><Description dt:dt=""string"">E-Prime Primary Realtime Clock</Description><StartTime><Timestamp dt:dt=""int"">0</Timestamp><DateUtc dt:dt=""string"">2023-02-11T03:28:40Z</DateUtc></StartTime><FrequencyChanges><FrequencyChange><Frequency dt:dt=""r8"">10000000</Frequency><Timestamp dt:dt=""r8"">607444700569</Timestamp><Current dt:dt=""r8"">0</Current><DateUtc dt:dt=""string"">2023-02-11T03:28:40Z</DateUtc></FrequencyChange></FrequencyChanges></Clock>\n",Wisconsin-1155-4,60.039,1.0.0.262,1,1857011325,3.0.3.80,3.0.3.80,02-11-2023,2/11/2023 3:28:41 AM,11:28:41,3.0.3.82,3,,,,,,,BlockProc2,List2,1,,,,,,,,,,,,,,,,,2.0,1.0,2.0,1.0,1.0,1.0,,,,ColorProc2,List4,,,,,,,,,3.0,BUTTON1.png,BUTTON2.PNG,BUTTON3.png,BUTTON4.png,bluestar3.png,,,,2.0,1.0,3.0,{Button4},0.0,,,,,,,0.0,TrialProc,ColorList2,,,,,,,0.0,{Button4},10.0,33.0,217534.0,0.0,{Button3},1834.0,color
Wisconsin,1155,4,"<?xml version=""1.0""?>\n<Clock xmlns:dt=""urn:schemas-microsoft-com:datatypes""><Description dt:dt=""string"">E-Prime Primary Realtime Clock</Description><StartTime><Timestamp dt:dt=""int"">0</Timestamp><DateUtc dt:dt=""string"">2023-02-11T03:28:40Z</DateUtc></StartTime><FrequencyChanges><FrequencyChange><Frequency dt:dt=""r8"">10000000</Frequency><Timestamp dt:dt=""r8"">607444700569</Timestamp><Current dt:dt=""r8"">0</Current><DateUtc dt:dt=""string"">2023-02-11T03:28:40Z</DateUtc></FrequencyChange></FrequencyChanges></Clock>\n",Wisconsin-1155-4,60.039,1.0.0.262,1,1857011325,3.0.3.80,3.0.3.80,02-11-2023,2/11/2023 3:28:41 AM,11:28:41,3.0.3.82,3,,,,,,,BlockProc2,List2,1,,,,,,,,,,,,,,,,,2.0,1.0,2.0,1.0,1.0,1.0,,,,ColorProc2,List4,,,,,,,,,4.0,BUTTON1.png,BUTTON2.PNG,BUTTON3.png,BUTTON4.png,yellowtriangle3.png,,,,10.0,1.0,4.0,{Button2},0.0,,,,,,,0.0,TrialProc,ColorList2,,,,,,,1.0,{Button2},9.0,33.0,221950.0,0.0,{Button2},962.0,color
Wisconsin,1155,4,"<?xml version=""1.0""?>\n<Clock xmlns:dt=""urn:schemas-microsoft-com:datatypes""><Description dt:dt=""string"">E-Prime Primary Realtime Clock</Description><StartTime><Timestamp dt:dt=""int"">0</Timestamp><DateUtc dt:dt=""string"">2023-02-11T03:28:40Z</DateUtc></StartTime><FrequencyChanges><FrequencyChange><Frequency dt:dt=""r8"">10000000</Frequency><Timestamp dt:dt=""r8"">607444700569</Timestamp><Current dt:dt=""r8"">0</Current><DateUtc dt:dt=""string"">2023-02-11T03:28:40Z</DateUtc></FrequencyChange></FrequencyChanges></Clock>\n",Wisconsin-1155-4,60.039,1.0.0.262,1,1857011325,3.0.3.80,3.0.3.80,02-11-2023,2/11/2023 3:28:41 AM,11:28:41,3.0.3.82,3,,,,,,,BlockProc2,List2,1,,,,,,,,,,,,,,,,,2.0,1.0,2.0,1.0,1.0,1.0,,,,ColorProc2,List4,,,,,,,,,5.0,BUTTON1.png,BUTTON2.PNG,BUTTON3.png,BUTTON4.png,greencross4.png,,,,4.0,1.0,5.0,{Button1},0.0,,,,,,,0.0,TrialProc,ColorList2,,,,,,,0.0,{Button1},10.0,33.0,225499.0,0.0,{Button3},1654.0,color
Wisconsin,1155,4,"<?xml version=""1.0""?>\n<Clock xmlns:dt=""urn:schemas-microsoft-com:datatypes""><Description dt:dt=""string"">E-Prime Primary Realtime Clock</Description><StartTime><Timestamp dt:dt=""int"">0</Timestamp><DateUtc dt:dt=""string"">2023-02-11T03:28:40Z</DateUtc></StartTime><FrequencyChanges><FrequencyChange><Frequency dt:dt=""r8"">10000000</Frequency><Timestamp dt:dt=""r8"">607444700569</Timestamp><Current dt:dt=""r8"">0</Current><DateUtc dt:dt=""string"">2023-02-11T03:28:40Z</DateUtc></FrequencyChange></FrequencyChanges></Clock>\n",Wisconsin-1155-4,60.039,1.0.0.262,1,1857011325,3.0.3.80,3.0.3.80,02-11-2023,2/11/2023 3:28:41 AM,11:28:41,3.0.3.82,3,,,,,,,BlockProc2,List2,1,,,,,,,,,,,,,,,,,2.0,1.0,2.0,1.0,1.0,1.0,,,,ColorProc2,List4,,,,,,,,,6.0,BUTTON1.png,BUTTON2.PNG,BUTTON3.png,BUTTON4.png,redstar4.png,,,,8.0,1.0,6.0,{Button3},0.0,,,,,,,0.0,TrialProc,ColorList2,,,,,,,0.0,{Button3},9.0,33.0,229731.0,0.0,{Button2},1589.0,color
Wisconsin,1155,4,"<?xml version=""1.0""?>\n<Clock xmlns:dt=""urn:schemas-microsoft-com:datatypes""><Description dt:dt=""string"">E-Prime Primary Realtime Clock</Description><StartTime><Timestamp dt:dt=""int"">0</Timestamp><DateUtc dt:dt=""string"">2023-02-11T03:28:40Z</DateUtc></StartTime><FrequencyChanges><FrequencyChange><Frequency dt:dt=""r8"">10000000</Frequency><Timestamp dt:dt=""r8"">607444700569</Timestamp><Current dt:dt=""r8"">0</Current><DateUtc dt:dt=""string"">2023-02-11T03:28:40Z</DateUtc></FrequencyChange></FrequencyChanges></Clock>\n",Wisconsin-1155-4,60.039,1.0.0.262,1,1857011325,3.0.3.80,3.0.3.80,02-11-2023,2/11/2023 3:28:41 AM,11:28:41,3.0.3.82,3,,,,,,,BlockProc2,List2,1,,,,,,,,,,,,,,,,,2.0,1.0,2.0,1.0,1.0,1.0,,,,ColorProc2,List4,,,,,,,,,7.0,BUTTON1.png,BUTTON2.PNG,BUTTON3.png,BUTTON4.png,Redcircle2.png,,,,7.0,1.0,7.0,{Button3},0.0,,,,,,,0.0,TrialProc,ColorList2,,,,,,,0.0,{Button3},2.0,33.0,233897.0,0.0,{Button1},1431.0,color
Wisconsin,1155,4,"<?xml version=""1.0""?>\n<Clock xmlns:dt=""urn:schemas-microsoft-com:datatypes""><Description dt:dt=""string"">E-Prime Primary Realtime Clock</Description><StartTime><Timestamp dt:dt=""int"">0</Timestamp><DateUtc dt:dt=""string"">2023-02-11T03:28:40Z</DateUtc></StartTime><FrequencyChanges><FrequencyChange><Frequency dt:dt=""r8"">10000000</Frequency><Timestamp dt:dt=""r8"">607444700569</Timestamp><Current dt:dt=""r8"">0</Current><DateUtc dt:dt=""string"">2023-02-11T03:28:40Z</DateUtc></FrequencyChange></FrequencyChanges></Clock>\n",Wisconsin-1155-4,60.039,1.0.0.262,1,1857011325,3.0.3.80,3.0.3.80,02-11-2023,2/11/2023 3:28:41 AM,11:28:41,3.0.3.82,3,,,,,,,BlockProc2,List2,1,,,,,,,,,,,,,,,,,2.0,1.0,2.0,1.0,1.0,1.0,,,,ColorProc2,List4,,,,,,,,,8.0,BUTTON1.png,BUTTON2.PNG,BUTTON3.png,BUTTON4.png,greentriangle2.png,,,,6.0,1.0,8.0,{Button1},0.0,,,,,,,0.0,TrialProc,ColorList2,,,,,,,1.0,{Button1},1.0,34.0,237913.0,0.0,{Button1},1927.0,color
Wisconsin,1155,4,"<?xml version=""1.0""?>\n<Clock xmlns:dt=""urn:schemas-microsoft-com:datatypes""><Description dt:dt=""string"">E-Prime Primary Realtime Clock</Description><StartTime><Timestamp dt:dt=""int"">0</Timestamp><DateUtc dt:dt=""string"">2023-02-11T03:28:40Z</DateUtc></StartTime><FrequencyChanges><FrequencyChange><Frequency dt:dt=""r8"">10000000</Frequency><Timestamp dt:dt=""r8"">607444700569</Timestamp><Current dt:dt=""r8"">0</Current><DateUtc dt:dt=""string"">2023-02-11T03:28:40Z</DateUtc></FrequencyChange></FrequencyChanges></Clock>\n",Wisconsin-1155-4,60.039,1.0.0.262,1,1857011325,3.0.3.80,3.0.3.80,02-11-2023,2/11/2023 3:28:41 AM,11:28:41,3.0.3.82,3,,,,,,,BlockProc2,List2,1,,,,,,,,,,,,,,,,,2.0,1.0,2.0,1.0,1.0,1.0,,,,ColorProc2,List4,,,,,,,,,9.0,BUTTON1.png,BUTTON2.PNG,BUTTON3.png,BUTTON4.png,yellowcircle2.png,,,,9.0,1.0,9.0,{Button2},0.0,,,,,,,0.0,TrialProc,ColorList2,,,,,,,1.0,{Button2},2.0,33.0,242411.0,0.0,{Button2},973.0,color
Wisconsin,1155,4,"<?xml version=""1.0""?>\n<Clock xmlns:dt=""urn:schemas-microsoft-com:datatypes""><Description dt:dt=""string"">E-Prime Primary Realtime Clock</Description><StartTime><Timestamp dt:dt=""int"">0</Timestamp><DateUtc dt:dt=""string"">2023-02-11T03:28:40Z</DateUtc></StartTime><FrequencyChanges><FrequencyChange><Frequency dt:dt=""r8"">10000000</Frequency><Timestamp dt:dt=""r8"">607444700569</Timestamp><Current dt:dt=""r8"">0</Current><DateUtc dt:dt=""string"">2023-02-11T03:28:40Z</DateUtc></FrequencyChange></FrequencyChanges></Clock>\n",Wisconsin-1155-4,60.039,1.0.0.262,1,1857011325,3.0.3.80,3.0.3.80,02-11-2023,2/11/2023 3:28:41 AM,11:28:41,3.0.3.82,3,,,,,,,BlockProc2,List2,1,,,,,,,,,,,,,,,,,2.0,1.0,2.0,1.0,1.0,1.0,,,,ColorProc2,List4,,,,,,,,,10.0,BUTTON1.png,BUTTON2.PNG,BUTTON3.png,BUTTON4.png,greenstar4.png,,,,5.0,1.0,10.0,{Button1},0.0,,,,,,,0.0,TrialProc,ColorList2,,,,,,,1.0,{Button1},9.0,34.0,245961.0,0.0,{Button1},1384.0,color
Wisconsin,1155,4,"<?xml version=""1.0""?>\n<Clock xmlns:dt=""urn:schemas-microsoft-com:datatypes""><Description dt:dt=""string"">E-Prime Primary Realtime Clock</Description><StartTime><Timestamp dt:dt=""int"">0</Timestamp><DateUtc dt:dt=""string"">2023-02-11T03:28:40Z</DateUtc></StartTime><FrequencyChanges><FrequencyChange><Frequency dt:dt=""r8"">10000000</Frequency><Timestamp dt:dt=""r8"">607444700569</Timestamp><Current dt:dt=""r8"">0</Current><DateUtc dt:dt=""string"">2023-02-11T03:28:40Z</DateUtc></FrequencyChange></FrequencyChanges></Clock>\n",Wisconsin-1155-4,60.039,1.0.0.262,1,1857011325,3.0.3.80,3.0.3.80,02-11-2023,2/11/2023 3:28:41 AM,11:28:41,3.0.3.82,3,,,,,,,BlockProc2,List2,2,,,,,,,,,,,,,,,,,2.0,1.0,2.0,3.0,1.0,2.0,,,,NumberProc2,List4,,,,,,,,,1.0,Button1.png,Button2.png,Button3.png,Button4.png,Bluecross3.png,,,,,,,{button3},0.0,,,,1.0,1.0,1.0,0.0,TrialProc,NumberList2,,,,,,,0.0,{button3},10.0,33.0,249926.0,0.0,{Button4},2138.0,number
Wisconsin,1155,4,"<?xml version=""1.0""?>\n<Clock xmlns:dt=""urn:schemas-microsoft-com:datatypes""><Description dt:dt=""string"">E-Prime Primary Realtime Clock</Description><StartTime><Timestamp dt:dt=""int"">0</Timestamp><DateUtc dt:dt=""string"">2023-02-11T03:28:40Z</DateUtc></StartTime><FrequencyChanges><FrequencyChange><Frequency dt:dt=""r8"">10000000</Frequency><Timestamp dt:dt=""r8"">607444700569</Timestamp><Current dt:dt=""r8"">0</Current><DateUtc dt:dt=""string"">2023-02-11T03:28:40Z</DateUtc></FrequencyChange></FrequencyChanges></Clock>\n",Wisconsin-1155-4,60.039,1.0.0.262,1,1857011325,3.0.3.80,3.0.3.80,02-11-2023,2/11/2023 3:28:41 AM,11:28:41,3.0.3.82,3,,,,,,,BlockProc2,List2,2,,,,,,,,,,,,,,,,,2.0,1.0,2.0,3.0,1.0,2.0,,,,NumberProc2,List4,,,,,,,,,2.0,Button1.png,Button2.png,Button3.png,Button4.png,Bluestar4.png,,,,,,,{button2},0.0,,,,2.0,1.0,2.0,0.0,TrialProc,NumberList2,,,,,,,0.0,{button2},9.0,33.0,254642.0,0.0,{Button4},2918.0,number
Wisconsin,1155,4,"<?xml version=""1.0""?>\n<Clock xmlns:dt=""urn:schemas-microsoft-com:datatypes""><Description dt:dt=""string"">E-Prime Primary Realtime Clock</Description><StartTime><Timestamp dt:dt=""int"">0</Timestamp><DateUtc dt:dt=""string"">2023-02-11T03:28:40Z</DateUtc></StartTime><FrequencyChanges><FrequencyChange><Frequency dt:dt=""r8"">10000000</Frequency><Timestamp dt:dt=""r8"">607444700569</Timestamp><Current dt:dt=""r8"">0</Current><DateUtc dt:dt=""string"">2023-02-11T03:28:40Z</DateUtc></FrequencyChange></FrequencyChanges></Clock>\n",Wisconsin-1155-4,60.039,1.0.0.262,1,1857011325,3.0.3.80,3.0.3.80,02-11-2023,2/11/2023 3:28:41 AM,11:28:41,3.0.3.82,3,,,,,,,BlockProc2,List2,2,,,,,,,,,,,,,,,,,2.0,1.0,2.0,3.0,1.0,2.0,,,,NumberProc2,List4,,,,,,,,,3.0,Button1.png,Button2.png,Button3.png,Button4.png,Bluetriangle4.png,,,,,,,{button2},0.0,,,,3.0,1.0,3.0,0.0,TrialProc,NumberList2,,,,,,,1.0,{button2},10.0,33.0,260140.0,0.0,{Button2},732.0,number
Wisconsin,1155,4,"<?xml version=""1.0""?>\n<Clock xmlns:dt=""urn:schemas-microsoft-com:datatypes""><Description dt:dt=""string"">E-Prime Primary Realtime Clock</Description><StartTime><Timestamp dt:dt=""int"">0</Timestamp><DateUtc dt:dt=""string"">2023-02-11T03:28:40Z</DateUtc></StartTime><FrequencyChanges><FrequencyChange><Frequency dt:dt=""r8"">10000000</Frequency><Timestamp dt:dt=""r8"">607444700569</Timestamp><Current dt:dt=""r8"">0</Current><DateUtc dt:dt=""string"">2023-02-11T03:28:40Z</DateUtc></FrequencyChange></FrequencyChanges></Clock>\n",Wisconsin-1155-4,60.039,1.0.0.262,1,1857011325,3.0.3.80,3.0.3.80,02-11-2023,2/11/2023 3:28:41 AM,11:28:41,3.0.3.82,3,,,,,,,BlockProc2,List2,2,,,,,,,,,,,,,,,,,2.0,1.0,2.0,3.0,1.0,2.0,,,,NumberProc2,List4,,,,,,,,,4.0,Button1.png,Button2.png,Button3.png,Button4.png,Greencross2.png,,,,,,,{button1},0.0,,,,4.0,1.0,4.0,0.0,TrialProc,NumberList2,,,,,,,1.0,{button1},2.0,33.0,263456.0,0.0,{Button1},1232.0,number
Wisconsin,1155,4,"<?xml version=""1.0""?>\n<Clock xmlns:dt=""urn:schemas-microsoft-com:datatypes""><Description dt:dt=""string"">E-Prime Primary Realtime Clock</Description><StartTime><Timestamp dt:dt=""int"">0</Timestamp><DateUtc dt:dt=""string"">2023-02-11T03:28:40Z</DateUtc></StartTime><FrequencyChanges><FrequencyChange><Frequency dt:dt=""r8"">10000000</Frequency><Timestamp dt:dt=""r8"">607444700569</Timestamp><Current dt:dt=""r8"">0</Current><DateUtc dt:dt=""string"">2023-02-11T03:28:40Z</DateUtc></FrequencyChange></FrequencyChanges></Clock>\n",Wisconsin-1155-4,60.039,1.0.0.262,1,1857011325,3.0.3.80,3.0.3.80,02-11-2023,2/11/2023 3:28:41 AM,11:28:41,3.0.3.82,3,,,,,,,BlockProc2,List2,2,,,,,,,,,,,,,,,,,2.0,1.0,2.0,3.0,1.0,2.0,,,,NumberProc2,List4,,,,,,,,,5.0,Button1.png,Button2.png,Button3.png,Button4.png,Greenstar1.png,,,,,,,{button4},0.0,,,,5.0,1.0,5.0,0.0,TrialProc,NumberList2,,,,,,,0.0,{button4},2.0,33.0,267272.0,0.0,{Button1},1008.0,number
Wisconsin,1155,4,"<?xml version=""1.0""?>\n<Clock xmlns:dt=""urn:schemas-microsoft-com:datatypes""><Description dt:dt=""string"">E-Prime Primary Realtime Clock</Description><StartTime><Timestamp dt:dt=""int"">0</Timestamp><DateUtc dt:dt=""string"">2023-02-11T03:28:40Z</DateUtc></StartTime><FrequencyChanges><FrequencyChange><Frequency dt:dt=""r8"">10000000</Frequency><Timestamp dt:dt=""r8"">607444700569</Timestamp><Current dt:dt=""r8"">0</Current><DateUtc dt:dt=""string"">2023-02-11T03:28:40Z</DateUtc></FrequencyChange></FrequencyChanges></Clock>\n",Wisconsin-1155-4,60.039,1.0.0.262,1,1857011325,3.0.3.80,3.0.3.80,02-11-2023,2/11/2023 3:28:41 AM,11:28:41,3.0.3.82,3,,,,,,,BlockProc2,List2,2,,,,,,,,,,,,,,,,,2.0,1.0,2.0,3.0,1.0,2.0,,,,NumberProc2,List4,,,,,,,,,6.0,Button1.png,Button2.png,Button3.png,Button4.png,Redstar1.png,,,,,,,{button4},0.0,,,,6.0,1.0,6.0,0.0,TrialProc,NumberList2,,,,,,,1.0,{button4},2.0,33.0,270854.0,0.0,{Button4},1883.0,number
Wisconsin,1155,4,"<?xml version=""1.0""?>\n<Clock xmlns:dt=""urn:schemas-microsoft-com:datatypes""><Description dt:dt=""string"">E-Prime Primary Realtime Clock</Description><StartTime><Timestamp dt:dt=""int"">0</Timestamp><DateUtc dt:dt=""string"">2023-02-11T03:28:40Z</DateUtc></StartTime><FrequencyChanges><FrequencyChange><Frequency dt:dt=""r8"">10000000</Frequency><Timestamp dt:dt=""r8"">607444700569</Timestamp><Current dt:dt=""r8"">0</Current><DateUtc dt:dt=""string"">2023-02-11T03:28:40Z</DateUtc></FrequencyChange></FrequencyChanges></Clock>\n",Wisconsin-1155-4,60.039,1.0.0.262,1,1857011325,3.0.3.80,3.0.3.80,02-11-2023,2/11/2023 3:28:41 AM,11:28:41,3.0.3.82,3,,,,,,,BlockProc2,List2,2,,,,,,,,,,,,,,,,,2.0,1.0,2.0,3.0,1.0,2.0,,,,NumberProc2,List4,,,,,,,,,7.0,Button1.png,Button2.png,Button3.png,Button4.png,Redtriangle2.png,,,,,,,{button1},0.0,,,,7.0,1.0,7.0,0.0,TrialProc,NumberList2,,,,,,,0.0,{button1},1.0,33.0,275320.0,0.0,{Button3},1520.0,number
Wisconsin,1155,4,"<?xml version=""1.0""?>\n<Clock xmlns:dt=""urn:schemas-microsoft-com:datatypes""><Description dt:dt=""string"">E-Prime Primary Realtime Clock</Description><StartTime><Timestamp dt:dt=""int"">0</Timestamp><DateUtc dt:dt=""string"">2023-02-11T03:28:40Z</DateUtc></StartTime><FrequencyChanges><FrequencyChange><Frequency dt:dt=""r8"">10000000</Frequency><Timestamp dt:dt=""r8"">607444700569</Timestamp><Current dt:dt=""r8"">0</Current><DateUtc dt:dt=""string"">2023-02-11T03:28:40Z</DateUtc></FrequencyChange></FrequencyChanges></Clock>\n",Wisconsin-1155-4,60.039,1.0.0.262,1,1857011325,3.0.3.80,3.0.3.80,02-11-2023,2/11/2023 3:28:41 AM,11:28:41,3.0.3.82,3,,,,,,,BlockProc2,List2,2,,,,,,,,,,,,,,,,,2.0,1.0,2.0,3.0,1.0,2.0,,,,NumberProc2,List4,,,,,,,,,8.0,Button1.png,Button2.png,Button3.png,Button4.png,yellowcircle4.png,,,,,,,{button2},0.0,,,,8.0,1.0,8.0,0.0,TrialProc,NumberList2,,,,,,,1.0,{button2},10.0,33.0,279419.0,0.0,{Button2},1517.0,number
Wisconsin,1155,4,"<?xml version=""1.0""?>\n<Clock xmlns:dt=""urn:schemas-microsoft-com:datatypes""><Description dt:dt=""string"">E-Prime Primary Realtime Clock</Description><StartTime><Timestamp dt:dt=""int"">0</Timestamp><DateUtc dt:dt=""string"">2023-02-11T03:28:40Z</DateUtc></StartTime><FrequencyChanges><FrequencyChange><Frequency dt:dt=""r8"">10000000</Frequency><Timestamp dt:dt=""r8"">607444700569</Timestamp><Current dt:dt=""r8"">0</Current><DateUtc dt:dt=""string"">2023-02-11T03:28:40Z</DateUtc></FrequencyChange></FrequencyChanges></Clock>\n",Wisconsin-1155-4,60.039,1.0.0.262,1,1857011325,3.0.3.80,3.0.3.80,02-11-2023,2/11/2023 3:28:41 AM,11:28:41,3.0.3.82,3,,,,,,,BlockProc2,List2,2,,,,,,,,,,,,,,,,,2.0,1.0,2.0,3.0,1.0,2.0,,,,NumberProc2,List4,,,,,,,,,9.0,Button1.png,Button2.png,Button3.png,Button4.png,Yellowcross2.png,,,,,,,{button1},0.0,,,,9.0,1.0,9.0,0.0,TrialProc,NumberList2,,,,,,,1.0,{button1},9.0,33.0,283518.0,0.0,{Button1},2666.0,number
Wisconsin,1155,4,"<?xml version=""1.0""?>\n<Clock xmlns:dt=""urn:schemas-microsoft-com:datatypes""><Description dt:dt=""string"">E-Prime Primary Realtime Clock</Description><StartTime><Timestamp dt:dt=""int"">0</Timestamp><DateUtc dt:dt=""string"">2023-02-11T03:28:40Z</DateUtc></StartTime><FrequencyChanges><FrequencyChange><Frequency dt:dt=""r8"">10000000</Frequency><Timestamp dt:dt=""r8"">607444700569</Timestamp><Current dt:dt=""r8"">0</Current><DateUtc dt:dt=""string"">2023-02-11T03:28:40Z</DateUtc></FrequencyChange></FrequencyChanges></Clock>\n",Wisconsin-1155-4,60.039,1.0.0.262,1,1857011325,3.0.3.80,3.0.3.80,02-11-2023,2/11/2023 3:28:41 AM,11:28:41,3.0.3.82,3,,,,,,,BlockProc2,List2,2,,,,,,,,,,,,,,,,,2.0,1.0,2.0,3.0,1.0,2.0,,,,NumberProc2,List4,,,,,,,,,10.0,Button1.png,Button2.png,Button3.png,Button4.png,Yellowtriangle2.png,,,,,,,{button3},0.0,,,,10.0,1.0,10.0,0.0,TrialProc,NumberList2,,,,,,,0.0,{button3},9.0,33.0,288767.0,0.0,{Button1},1705.0,number
Wisconsin,1155,4,"<?xml version=""1.0""?>\n<Clock xmlns:dt=""urn:schemas-microsoft-com:datatypes""><Description dt:dt=""string"">E-Prime Primary Realtime Clock</Description><StartTime><Timestamp dt:dt=""int"">0</Timestamp><DateUtc dt:dt=""string"">2023-02-11T03:28:40Z</DateUtc></StartTime><FrequencyChanges><FrequencyChange><Frequency dt:dt=""r8"">10000000</Frequency><Timestamp dt:dt=""r8"">607444700569</Timestamp><Current dt:dt=""r8"">0</Current><DateUtc dt:dt=""string"">2023-02-11T03:28:40Z</DateUtc></FrequencyChange></FrequencyChanges></Clock>\n",Wisconsin-1155-4,60.039,1.0.0.262,1,1857011325,3.0.3.80,3.0.3.80,02-11-2023,2/11/2023 3:28:41 AM,11:28:41,3.0.3.82,3,,,,,,,BlockProc2,List2,3,,,,,,,,,,,,,,,,,2.0,1.0,2.0,2.0,1.0,3.0,,,,ShapeProc2,List4,,,,,,,,,1.0,Button1.png,Button2.png,Button3.png,Button4.png,Yellowstar2.png,,,,,,,{button4},0.0,,,,,,,0.0,TrialProc,ShapeList2,,,,9.0,1.0,1.0,0.0,{button4},9.0,33.0,293049.0,0.0,{Button2},1679.0,Shape
Wisconsin,1155,4,"<?xml version=""1.0""?>\n<Clock xmlns:dt=""urn:schemas-microsoft-com:datatypes""><Description dt:dt=""string"">E-Prime Primary Realtime Clock</Description><StartTime><Timestamp dt:dt=""int"">0</Timestamp><DateUtc dt:dt=""string"">2023-02-11T03:28:40Z</DateUtc></StartTime><FrequencyChanges><FrequencyChange><Frequency dt:dt=""r8"">10000000</Frequency><Timestamp dt:dt=""r8"">607444700569</Timestamp><Current dt:dt=""r8"">0</Current><DateUtc dt:dt=""string"">2023-02-11T03:28:40Z</DateUtc></FrequencyChange></FrequencyChanges></Clock>\n",Wisconsin-1155-4,60.039,1.0.0.262,1,1857011325,3.0.3.80,3.0.3.80,02-11-2023,2/11/2023 3:28:41 AM,11:28:41,3.0.3.82,3,,,,,,,BlockProc2,List2,3,,,,,,,,,,,,,,,,,2.0,1.0,2.0,2.0,1.0,3.0,,,,ShapeProc2,List4,,,,,,,,,2.0,Button1.png,Button2.png,Button3.png,Button4.png,redcircle1.png,,,,,,,{button1},0.0,,,,,,,0.0,TrialProc,ShapeList2,,,,4.0,1.0,2.0,1.0,{button1},9.0,33.0,297315.0,0.0,{Button1},1862.0,Shape
Wisconsin,1155,4,"<?xml version=""1.0""?>\n<Clock xmlns:dt=""urn:schemas-microsoft-com:datatypes""><Description dt:dt=""string"">E-Prime Primary Realtime Clock</Description><StartTime><Timestamp dt:dt=""int"">0</Timestamp><DateUtc dt:dt=""string"">2023-02-11T03:28:40Z</DateUtc></StartTime><FrequencyChanges><FrequencyChange><Frequency dt:dt=""r8"">10000000</Frequency><Timestamp dt:dt=""r8"">607444700569</Timestamp><Current dt:dt=""r8"">0</Current><DateUtc dt:dt=""string"">2023-02-11T03:28:40Z</DateUtc></FrequencyChange></FrequencyChanges></Clock>\n",Wisconsin-1155-4,60.039,1.0.0.262,1,1857011325,3.0.3.80,3.0.3.80,02-11-2023,2/11/2023 3:28:41 AM,11:28:41,3.0.3.82,3,,,,,,,BlockProc2,List2,3,,,,,,,,,,,,,,,,,2.0,1.0,2.0,2.0,1.0,3.0,,,,ShapeProc2,List4,,,,,,,,,3.0,Button1.png,Button2.png,Button3.png,Button4.png,Yellowtriangle1.png,,,,,,,{button2},0.0,,,,,,,0.0,TrialProc,ShapeList2,,,,10.0,1.0,3.0,1.0,{button2},1.0,34.0,301764.0,0.0,{Button2},2076.0,Shape
Wisconsin,1155,4,"<?xml version=""1.0""?>\n<Clock xmlns:dt=""urn:schemas-microsoft-com:datatypes""><Description dt:dt=""string"">E-Prime Primary Realtime Clock</Description><StartTime><Timestamp dt:dt=""int"">0</Timestamp><DateUtc dt:dt=""string"">2023-02-11T03:28:40Z</DateUtc></StartTime><FrequencyChanges><FrequencyChange><Frequency dt:dt=""r8"">10000000</Frequency><Timestamp dt:dt=""r8"">607444700569</Timestamp><Current dt:dt=""r8"">0</Current><DateUtc dt:dt=""string"">2023-02-11T03:28:40Z</DateUtc></FrequencyChange></FrequencyChanges></Clock>\n",Wisconsin-1155-4,60.039,1.0.0.262,1,1857011325,3.0.3.80,3.0.3.80,02-11-2023,2/11/2023 3:28:41 AM,11:28:41,3.0.3.82,3,,,,,,,BlockProc2,List2,3,,,,,,,,,,,,,,,,,2.0,1.0,2.0,2.0,1.0,3.0,,,,ShapeProc2,List4,,,,,,,,,4.0,Button1.png,Button2.png,Button3.png,Button4.png,Redtriangle3.png,,,,,,,{button2},0.0,,,,,,,0.0,TrialProc,ShapeList2,,,,7.0,1.0,4.0,1.0,{button2},10.0,33.0,306412.0,0.0,{Button2},2076.0,Shape
Wisconsin,1155,4,"<?xml version=""1.0""?>\n<Clock xmlns:dt=""urn:schemas-microsoft-com:datatypes""><Description dt:dt=""string"">E-Prime Primary Realtime Clock</Description><StartTime><Timestamp dt:dt=""int"">0</Timestamp><DateUtc dt:dt=""string"">2023-02-11T03:28:40Z</DateUtc></StartTime><FrequencyChanges><FrequencyChange><Frequency dt:dt=""r8"">10000000</Frequency><Timestamp dt:dt=""r8"">607444700569</Timestamp><Current dt:dt=""r8"">0</Current><DateUtc dt:dt=""string"">2023-02-11T03:28:40Z</DateUtc></FrequencyChange></FrequencyChanges></Clock>\n",Wisconsin-1155-4,60.039,1.0.0.262,1,1857011325,3.0.3.80,3.0.3.80,02-11-2023,2/11/2023 3:28:41 AM,11:28:41,3.0.3.82,3,,,,,,,BlockProc2,List2,3,,,,,,,,,,,,,,,,,2.0,1.0,2.0,2.0,1.0,3.0,,,,ShapeProc2,List4,,,,,,,,,5.0,Button1.png,Button2.png,Button3.png,Button4.png,yellowcross4.png,,,,,,,{button3},0.0,,,,,,,0.0,TrialProc,ShapeList2,,,,8.0,1.0,5.0,0.0,{button3},10.0,33.0,311061.0,0.0,{Button2},939.0,Shape
Wisconsin,1155,4,"<?xml version=""1.0""?>\n<Clock xmlns:dt=""urn:schemas-microsoft-com:datatypes""><Description dt:dt=""string"">E-Prime Primary Realtime Clock</Description><StartTime><Timestamp dt:dt=""int"">0</Timestamp><DateUtc dt:dt=""string"">2023-02-11T03:28:40Z</DateUtc></StartTime><FrequencyChanges><FrequencyChange><Frequency dt:dt=""r8"">10000000</Frequency><Timestamp dt:dt=""r8"">607444700569</Timestamp><Current dt:dt=""r8"">0</Current><DateUtc dt:dt=""string"">2023-02-11T03:28:40Z</DateUtc></FrequencyChange></FrequencyChanges></Clock>\n",Wisconsin-1155-4,60.039,1.0.0.262,1,1857011325,3.0.3.80,3.0.3.80,02-11-2023,2/11/2023 3:28:41 AM,11:28:41,3.0.3.82,3,,,,,,,BlockProc2,List2,3,,,,,,,,,,,,,,,,,2.0,1.0,2.0,2.0,1.0,3.0,,,,ShapeProc2,List4,,,,,,,,,6.0,Button1.png,Button2.png,Button3.png,Button4.png,Bluecircle3.png,,,,,,,{button1},0.0,,,,,,,0.0,TrialProc,ShapeList2,,,,1.0,1.0,6.0,1.0,{button1},10.0,33.0,314577.0,0.0,{Button1},1807.0,Shape
Wisconsin,1155,4,"<?xml version=""1.0""?>\n<Clock xmlns:dt=""urn:schemas-microsoft-com:datatypes""><Description dt:dt=""string"">E-Prime Primary Realtime Clock</Description><StartTime><Timestamp dt:dt=""int"">0</Timestamp><DateUtc dt:dt=""string"">2023-02-11T03:28:40Z</DateUtc></StartTime><FrequencyChanges><FrequencyChange><Frequency dt:dt=""r8"">10000000</Frequency><Timestamp dt:dt=""r8"">607444700569</Timestamp><Current dt:dt=""r8"">0</Current><DateUtc dt:dt=""string"">2023-02-11T03:28:40Z</DateUtc></FrequencyChange></FrequencyChanges></Clock>\n",Wisconsin-1155-4,60.039,1.0.0.262,1,1857011325,3.0.3.80,3.0.3.80,02-11-2023,2/11/2023 3:28:41 AM,11:28:41,3.0.3.82,3,,,,,,,BlockProc2,List2,3,,,,,,,,,,,,,,,,,2.0,1.0,2.0,2.0,1.0,3.0,,,,ShapeProc2,List4,,,,,,,,,7.0,Button1.png,Button2.png,Button3.png,Button4.png,Bluetriangle2.png,,,,,,,{button2},0.0,,,,,,,0.0,TrialProc,ShapeList2,,,,2.0,1.0,7.0,1.0,{button2},11.0,33.0,318959.0,0.0,{Button2},1001.0,Shape
Wisconsin,1155,4,"<?xml version=""1.0""?>\n<Clock xmlns:dt=""urn:schemas-microsoft-com:datatypes""><Description dt:dt=""string"">E-Prime Primary Realtime Clock</Description><StartTime><Timestamp dt:dt=""int"">0</Timestamp><DateUtc dt:dt=""string"">2023-02-11T03:28:40Z</DateUtc></StartTime><FrequencyChanges><FrequencyChange><Frequency dt:dt=""r8"">10000000</Frequency><Timestamp dt:dt=""r8"">607444700569</Timestamp><Current dt:dt=""r8"">0</Current><DateUtc dt:dt=""string"">2023-02-11T03:28:40Z</DateUtc></FrequencyChange></FrequencyChanges></Clock>\n",Wisconsin-1155-4,60.039,1.0.0.262,1,1857011325,3.0.3.80,3.0.3.80,02-11-2023,2/11/2023 3:28:41 AM,11:28:41,3.0.3.82,3,,,,,,,BlockProc2,List2,3,,,,,,,,,,,,,,,,,2.0,1.0,2.0,2.0,1.0,3.0,,,,ShapeProc2,List4,,,,,,,,,8.0,Button1.png,Button2.png,Button3.png,Button4.png,Redcross2.png,,,,,,,{button3},0.0,,,,,,,0.0,TrialProc,ShapeList2,,,,5.0,1.0,8.0,1.0,{button3},10.0,33.0,322542.0,0.0,{Button3},987.0,Shape
Wisconsin,1155,4,"<?xml version=""1.0""?>\n<Clock xmlns:dt=""urn:schemas-microsoft-com:datatypes""><Description dt:dt=""string"">E-Prime Primary Realtime Clock</Description><StartTime><Timestamp dt:dt=""int"">0</Timestamp><DateUtc dt:dt=""string"">2023-02-11T03:28:40Z</DateUtc></StartTime><FrequencyChanges><FrequencyChange><Frequency dt:dt=""r8"">10000000</Frequency><Timestamp dt:dt=""r8"">607444700569</Timestamp><Current dt:dt=""r8"">0</Current><DateUtc dt:dt=""string"">2023-02-11T03:28:40Z</DateUtc></FrequencyChange></FrequencyChanges></Clock>\n",Wisconsin-1155-4,60.039,1.0.0.262,1,1857011325,3.0.3.80,3.0.3.80,02-11-2023,2/11/2023 3:28:41 AM,11:28:41,3.0.3.82,3,,,,,,,BlockProc2,List2,3,,,,,,,,,,,,,,,,,2.0,1.0,2.0,2.0,1.0,3.0,,,,ShapeProc2,List4,,,,,,,,,9.0,Button1.png,Button2.png,Button3.png,Button4.png,Redstar3.png,,,,,,,{button4},0.0,,,,,,,0.0,TrialProc,ShapeList2,,,,6.0,1.0,9.0,0.0,{button4},1.0,33.0,326108.0,0.0,{Button3},996.0,Shape
Wisconsin,1155,4,"<?xml version=""1.0""?>\n<Clock xmlns:dt=""urn:schemas-microsoft-com:datatypes""><Description dt:dt=""string"">E-Prime Primary Realtime Clock</Description><StartTime><Timestamp dt:dt=""int"">0</Timestamp><DateUtc dt:dt=""string"">2023-02-11T03:28:40Z</DateUtc></StartTime><FrequencyChanges><FrequencyChange><Frequency dt:dt=""r8"">10000000</Frequency><Timestamp dt:dt=""r8"">607444700569</Timestamp><Current dt:dt=""r8"">0</Current><DateUtc dt:dt=""string"">2023-02-11T03:28:40Z</DateUtc></FrequencyChange></FrequencyChanges></Clock>\n",Wisconsin-1155-4,60.039,1.0.0.262,1,1857011325,3.0.3.80,3.0.3.80,02-11-2023,2/11/2023 3:28:41 AM,11:28:41,3.0.3.82,3,,,,,,,BlockProc2,List2,3,,,,,,,,,,,,,,,,,2.0,1.0,2.0,2.0,1.0,3.0,,,,ShapeProc2,List4,,,,,,,,,10.0,Button1.png,Button2.png,Button3.png,Button4.png,Greenstar3.png,,,,,,,{button4},0.0,,,,,,,0.0,TrialProc,ShapeList2,,,,3.0,1.0,10.0,1.0,{button4},10.0,33.0,329690.0,0.0,{Button4},2670.0,Shape
