ExperimentName,Subject,Session,Clock.Information,DataFile.Basename,Display.RefreshRate,ExperimentVersion,Group,RandomSeed,RuntimeVersion,RuntimeVersionExpected,SessionDate,SessionStartDateTimeUtc,SessionTime,StudioVersion,Block,List1,List1.Cycle,List1.Sample,List3,List3.Cycle,List3.Sample,Procedure[Block],Running[Block],Trial,CardIMG1[Trial],CardIMG2[Trial],CardIMG3[Trial],CardIMG4[Trial],CardStim[Trial],Category,CorrectAnswer[Trial],FeedbackDisplay2.ACC,FeedbackDisplay2.CRESP,FeedbackDisplay2.DurationError,FeedbackDisplay2.OnsetDelay,FeedbackDisplay2.OnsetTime,FeedbackDisplay2.OnsetToOnsetTime,FeedbackDisplay2.RESP,FeedbackDisplay2.RT,FeedbackDisplay2.RTTime,List2,List2.Cycle,List2.Sample,List4,List4.Cycle,List4.Sample,PracticeList,PracticeList.Cycle,PracticeList.Sample,Procedure[Trial],Running[Trial],FeedbackDisplay2.ACC,FeedbackDisplay2.CRESP,FeedbackDisplay2.DurationError,FeedbackDisplay2.OnsetDelay,FeedbackDisplay2.OnsetTime,FeedbackDisplay2.OnsetToOnsetTime,FeedbackDisplay2.RESP,FeedbackDisplay2.RT,SubTrial,CardIMG1[SubTrial],CardIMG2[SubTrial],CardIMG3[SubTrial],CardIMG4[SubTrial],CardStim[SubTrial],ColorList,ColorList.Cycle,ColorList.Sample,ColorList2,ColorList2.Cycle,ColorList2.Sample,CorrectAnswer[SubTrial],NonPerseverativeError,NumberList,NumberList.Cycle,NumberList.Sample,NumberList1,NumberList1.Cycle,NumberList1.Sample,PerseverativeError,Procedure[SubTrial],Running[SubTrial],ShapeList,ShapeList.Cycle,ShapeList.Sample,ShapeList1,ShapeList1.Cycle,ShapeList1.Sample,Stimulus.ACC,Stimulus.CRESP,Stimulus.DurationError,Stimulus.OnsetDelay,Stimulus.OnsetTime,Stimulus.OnsetToOnsetTime,Stimulus.RESP,Stimulus.RT,TrialType
Wisconsin,1172,1,"<?xml version=""1.0""?>\n<Clock xmlns:dt=""urn:schemas-microsoft-com:datatypes""><Description dt:dt=""string"">E-Prime Primary Realtime Clock</Description><StartTime><Timestamp dt:dt=""int"">0</Timestamp><DateUtc dt:dt=""string"">2022-12-03T03:11:18Z</DateUtc></StartTime><FrequencyChanges><FrequencyChange><Frequency dt:dt=""r8"">10000000</Frequency><Timestamp dt:dt=""r8"">7541646162286</Timestamp><Current dt:dt=""r8"">0</Current><DateUtc dt:dt=""string"">2022-12-03T03:11:18Z</DateUtc></FrequencyChange></FrequencyChanges></Clock>\n",Wisconsin-1172-1,60.009,1.0.0.245,1,-313846870,3.0.3.80,3.0.3.80,12-03-2022,12/3/2022 3:11:19 AM,11:11:19,3.0.3.82,1,1.0,1.0,1.0,,,,Practiceploc,List1,1,Button1.png,Button2.png,Button3.png,Button4.png,Greencircle3.png,顏色,{button1},0.0,{button1},2.0,50.0,69743.0,5032.0,,0.0,0.0,,,,,,,1.0,1.0,1.0,PracticeTrialProc,PracticeList,0.0,{button1},2.0,50.0,69743.0,5032.0,,0.0,,,,,,,,,,,,,,,,,,,,,,,,,,,,,,,,,,,,,,
Wisconsin,1172,1,"<?xml version=""1.0""?>\n<Clock xmlns:dt=""urn:schemas-microsoft-com:datatypes""><Description dt:dt=""string"">E-Prime Primary Realtime Clock</Description><StartTime><Timestamp dt:dt=""int"">0</Timestamp><DateUtc dt:dt=""string"">2022-12-03T03:11:18Z</DateUtc></StartTime><FrequencyChanges><FrequencyChange><Frequency dt:dt=""r8"">10000000</Frequency><Timestamp dt:dt=""r8"">7541646162286</Timestamp><Current dt:dt=""r8"">0</Current><DateUtc dt:dt=""string"">2022-12-03T03:11:18Z</DateUtc></FrequencyChange></FrequencyChanges></Clock>\n",Wisconsin-1172-1,60.009,1.0.0.245,1,-313846870,3.0.3.80,3.0.3.80,12-03-2022,12/3/2022 3:11:19 AM,11:11:19,3.0.3.82,1,1.0,1.0,1.0,,,,Practiceploc,List1,2,Button1.png,Button2.png,Button3.png,Button4.png,Redstar2.png,顏色,{button3},1.0,{button3},2.0,33.0,77324.0,0.0,{Button3},2787.0,80111.0,,,,,,,2.0,1.0,2.0,PracticeTrialProc,PracticeList,1.0,{button3},2.0,33.0,77324.0,0.0,{Button3},2787.0,,,,,,,,,,,,,,,,,,,,,,,,,,,,,,,,,,,,,,
Wisconsin,1172,1,"<?xml version=""1.0""?>\n<Clock xmlns:dt=""urn:schemas-microsoft-com:datatypes""><Description dt:dt=""string"">E-Prime Primary Realtime Clock</Description><StartTime><Timestamp dt:dt=""int"">0</Timestamp><DateUtc dt:dt=""string"">2022-12-03T03:11:18Z</DateUtc></StartTime><FrequencyChanges><FrequencyChange><Frequency dt:dt=""r8"">10000000</Frequency><Timestamp dt:dt=""r8"">7541646162286</Timestamp><Current dt:dt=""r8"">0</Current><DateUtc dt:dt=""string"">2022-12-03T03:11:18Z</DateUtc></FrequencyChange></FrequencyChanges></Clock>\n",Wisconsin-1172-1,60.009,1.0.0.245,1,-313846870,3.0.3.80,3.0.3.80,12-03-2022,12/3/2022 3:11:19 AM,11:11:19,3.0.3.82,1,1.0,1.0,1.0,,,,Practiceploc,List1,3,Button1.png,Button2.png,Button3.png,Button4.png,Bluetriangle1.png,形狀,{button2},1.0,{button2},1.0,34.0,82707.0,0.0,{Button2},2100.0,84807.0,,,,,,,3.0,1.0,3.0,PracticeTrialProc,PracticeList,1.0,{button2},1.0,34.0,82707.0,0.0,{Button2},2100.0,,,,,,,,,,,,,,,,,,,,,,,,,,,,,,,,,,,,,,
Wisconsin,1172,1,"<?xml version=""1.0""?>\n<Clock xmlns:dt=""urn:schemas-microsoft-com:datatypes""><Description dt:dt=""string"">E-Prime Primary Realtime Clock</Description><StartTime><Timestamp dt:dt=""int"">0</Timestamp><DateUtc dt:dt=""string"">2022-12-03T03:11:18Z</DateUtc></StartTime><FrequencyChanges><FrequencyChange><Frequency dt:dt=""r8"">10000000</Frequency><Timestamp dt:dt=""r8"">7541646162286</Timestamp><Current dt:dt=""r8"">0</Current><DateUtc dt:dt=""string"">2022-12-03T03:11:18Z</DateUtc></FrequencyChange></FrequencyChanges></Clock>\n",Wisconsin-1172-1,60.009,1.0.0.245,1,-313846870,3.0.3.80,3.0.3.80,12-03-2022,12/3/2022 3:11:19 AM,11:11:19,3.0.3.82,1,1.0,1.0,1.0,,,,Practiceploc,List1,4,Button1.png,Button2.png,Button3.png,Button4.png,greenstar2.png,形狀,{Button4},1.0,{Button4},10.0,33.0,87389.0,0.0,{Button4},1834.0,89223.0,,,,,,,4.0,1.0,4.0,PracticeTrialProc,PracticeList,1.0,{Button4},10.0,33.0,87389.0,0.0,{Button4},1834.0,,,,,,,,,,,,,,,,,,,,,,,,,,,,,,,,,,,,,,
Wisconsin,1172,1,"<?xml version=""1.0""?>\n<Clock xmlns:dt=""urn:schemas-microsoft-com:datatypes""><Description dt:dt=""string"">E-Prime Primary Realtime Clock</Description><StartTime><Timestamp dt:dt=""int"">0</Timestamp><DateUtc dt:dt=""string"">2022-12-03T03:11:18Z</DateUtc></StartTime><FrequencyChanges><FrequencyChange><Frequency dt:dt=""r8"">10000000</Frequency><Timestamp dt:dt=""r8"">7541646162286</Timestamp><Current dt:dt=""r8"">0</Current><DateUtc dt:dt=""string"">2022-12-03T03:11:18Z</DateUtc></FrequencyChange></FrequencyChanges></Clock>\n",Wisconsin-1172-1,60.009,1.0.0.245,1,-313846870,3.0.3.80,3.0.3.80,12-03-2022,12/3/2022 3:11:19 AM,11:11:19,3.0.3.82,1,1.0,1.0,1.0,,,,Practiceploc,List1,5,Button1.png,Button2.png,Button3.png,Button4.png,BlueCross4.png,圖案數目,{Button2},1.0,{Button2},10.0,33.0,91804.0,0.0,{Button2},2132.0,93936.0,,,,,,,5.0,1.0,5.0,PracticeTrialProc,PracticeList,1.0,{Button2},10.0,33.0,91804.0,0.0,{Button2},2132.0,,,,,,,,,,,,,,,,,,,,,,,,,,,,,,,,,,,,,,
Wisconsin,1172,1,"<?xml version=""1.0""?>\n<Clock xmlns:dt=""urn:schemas-microsoft-com:datatypes""><Description dt:dt=""string"">E-Prime Primary Realtime Clock</Description><StartTime><Timestamp dt:dt=""int"">0</Timestamp><DateUtc dt:dt=""string"">2022-12-03T03:11:18Z</DateUtc></StartTime><FrequencyChanges><FrequencyChange><Frequency dt:dt=""r8"">10000000</Frequency><Timestamp dt:dt=""r8"">7541646162286</Timestamp><Current dt:dt=""r8"">0</Current><DateUtc dt:dt=""string"">2022-12-03T03:11:18Z</DateUtc></FrequencyChange></FrequencyChanges></Clock>\n",Wisconsin-1172-1,60.009,1.0.0.245,1,-313846870,3.0.3.80,3.0.3.80,12-03-2022,12/3/2022 3:11:19 AM,11:11:19,3.0.3.82,1,1.0,1.0,1.0,,,,Practiceploc,List1,6,Button1.png,Button2.png,Button3.png,Button4.png,yellowcircle2.png,圖案數目,{Button1},1.0,{Button1},10.0,33.0,96520.0,0.0,{Button1},2192.0,98712.0,,,,,,,6.0,1.0,6.0,PracticeTrialProc,PracticeList,1.0,{Button1},10.0,33.0,96520.0,0.0,{Button1},2192.0,,,,,,,,,,,,,,,,,,,,,,,,,,,,,,,,,,,,,,
Wisconsin,1172,1,"<?xml version=""1.0""?>\n<Clock xmlns:dt=""urn:schemas-microsoft-com:datatypes""><Description dt:dt=""string"">E-Prime Primary Realtime Clock</Description><StartTime><Timestamp dt:dt=""int"">0</Timestamp><DateUtc dt:dt=""string"">2022-12-03T03:11:18Z</DateUtc></StartTime><FrequencyChanges><FrequencyChange><Frequency dt:dt=""r8"">10000000</Frequency><Timestamp dt:dt=""r8"">7541646162286</Timestamp><Current dt:dt=""r8"">0</Current><DateUtc dt:dt=""string"">2022-12-03T03:11:18Z</DateUtc></FrequencyChange></FrequencyChanges></Clock>\n",Wisconsin-1172-1,60.009,1.0.0.245,1,-313846870,3.0.3.80,3.0.3.80,12-03-2022,12/3/2022 3:11:19 AM,11:11:19,3.0.3.82,2,,,,,,,BlockProc2,List2,1,,,,,,,,,,,,,,,,,2.0,1.0,1.0,3.0,1.0,1.0,,,,NumberProc2,List4,,,,,,,,,1.0,Button1.png,Button2.png,Button3.png,Button4.png,Bluecross3.png,,,,,,,{button3},0.0,,,,1.0,1.0,1.0,0.0,TrialProc,NumberList2,,,,,,,1.0,{button3},1.0,50.0,127246.0,0.0,{Button3},1425.0,number
Wisconsin,1172,1,"<?xml version=""1.0""?>\n<Clock xmlns:dt=""urn:schemas-microsoft-com:datatypes""><Description dt:dt=""string"">E-Prime Primary Realtime Clock</Description><StartTime><Timestamp dt:dt=""int"">0</Timestamp><DateUtc dt:dt=""string"">2022-12-03T03:11:18Z</DateUtc></StartTime><FrequencyChanges><FrequencyChange><Frequency dt:dt=""r8"">10000000</Frequency><Timestamp dt:dt=""r8"">7541646162286</Timestamp><Current dt:dt=""r8"">0</Current><DateUtc dt:dt=""string"">2022-12-03T03:11:18Z</DateUtc></FrequencyChange></FrequencyChanges></Clock>\n",Wisconsin-1172-1,60.009,1.0.0.245,1,-313846870,3.0.3.80,3.0.3.80,12-03-2022,12/3/2022 3:11:19 AM,11:11:19,3.0.3.82,2,,,,,,,BlockProc2,List2,1,,,,,,,,,,,,,,,,,2.0,1.0,1.0,3.0,1.0,1.0,,,,NumberProc2,List4,,,,,,,,,2.0,Button1.png,Button2.png,Button3.png,Button4.png,Bluestar4.png,,,,,,,{button2},0.0,,,,2.0,1.0,2.0,0.0,TrialProc,NumberList2,,,,,,,1.0,{button2},9.0,33.0,131245.0,0.0,{Button2},2611.0,number
Wisconsin,1172,1,"<?xml version=""1.0""?>\n<Clock xmlns:dt=""urn:schemas-microsoft-com:datatypes""><Description dt:dt=""string"">E-Prime Primary Realtime Clock</Description><StartTime><Timestamp dt:dt=""int"">0</Timestamp><DateUtc dt:dt=""string"">2022-12-03T03:11:18Z</DateUtc></StartTime><FrequencyChanges><FrequencyChange><Frequency dt:dt=""r8"">10000000</Frequency><Timestamp dt:dt=""r8"">7541646162286</Timestamp><Current dt:dt=""r8"">0</Current><DateUtc dt:dt=""string"">2022-12-03T03:11:18Z</DateUtc></FrequencyChange></FrequencyChanges></Clock>\n",Wisconsin-1172-1,60.009,1.0.0.245,1,-313846870,3.0.3.80,3.0.3.80,12-03-2022,12/3/2022 3:11:19 AM,11:11:19,3.0.3.82,2,,,,,,,BlockProc2,List2,1,,,,,,,,,,,,,,,,,2.0,1.0,1.0,3.0,1.0,1.0,,,,NumberProc2,List4,,,,,,,,,3.0,Button1.png,Button2.png,Button3.png,Button4.png,Bluetriangle4.png,,,,,,,{button2},0.0,,,,3.0,1.0,3.0,0.0,TrialProc,NumberList2,,,,,,,1.0,{button2},8.0,33.0,136427.0,0.0,{Button2},804.0,number
Wisconsin,1172,1,"<?xml version=""1.0""?>\n<Clock xmlns:dt=""urn:schemas-microsoft-com:datatypes""><Description dt:dt=""string"">E-Prime Primary Realtime Clock</Description><StartTime><Timestamp dt:dt=""int"">0</Timestamp><DateUtc dt:dt=""string"">2022-12-03T03:11:18Z</DateUtc></StartTime><FrequencyChanges><FrequencyChange><Frequency dt:dt=""r8"">10000000</Frequency><Timestamp dt:dt=""r8"">7541646162286</Timestamp><Current dt:dt=""r8"">0</Current><DateUtc dt:dt=""string"">2022-12-03T03:11:18Z</DateUtc></FrequencyChange></FrequencyChanges></Clock>\n",Wisconsin-1172-1,60.009,1.0.0.245,1,-313846870,3.0.3.80,3.0.3.80,12-03-2022,12/3/2022 3:11:19 AM,11:11:19,3.0.3.82,2,,,,,,,BlockProc2,List2,1,,,,,,,,,,,,,,,,,2.0,1.0,1.0,3.0,1.0,1.0,,,,NumberProc2,List4,,,,,,,,,4.0,Button1.png,Button2.png,Button3.png,Button4.png,Greencross2.png,,,,,,,{button1},0.0,,,,4.0,1.0,4.0,0.0,TrialProc,NumberList2,,,,,,,1.0,{button1},10.0,33.0,139809.0,0.0,{Button1},1286.0,number
Wisconsin,1172,1,"<?xml version=""1.0""?>\n<Clock xmlns:dt=""urn:schemas-microsoft-com:datatypes""><Description dt:dt=""string"">E-Prime Primary Realtime Clock</Description><StartTime><Timestamp dt:dt=""int"">0</Timestamp><DateUtc dt:dt=""string"">2022-12-03T03:11:18Z</DateUtc></StartTime><FrequencyChanges><FrequencyChange><Frequency dt:dt=""r8"">10000000</Frequency><Timestamp dt:dt=""r8"">7541646162286</Timestamp><Current dt:dt=""r8"">0</Current><DateUtc dt:dt=""string"">2022-12-03T03:11:18Z</DateUtc></FrequencyChange></FrequencyChanges></Clock>\n",Wisconsin-1172-1,60.009,1.0.0.245,1,-313846870,3.0.3.80,3.0.3.80,12-03-2022,12/3/2022 3:11:19 AM,11:11:19,3.0.3.82,2,,,,,,,BlockProc2,List2,1,,,,,,,,,,,,,,,,,2.0,1.0,1.0,3.0,1.0,1.0,,,,NumberProc2,List4,,,,,,,,,5.0,Button1.png,Button2.png,Button3.png,Button4.png,Greenstar1.png,,,,,,,{button4},0.0,,,,5.0,1.0,5.0,0.0,TrialProc,NumberList2,,,,,,,1.0,{button4},9.0,33.0,143675.0,0.0,{Button4},1436.0,number
Wisconsin,1172,1,"<?xml version=""1.0""?>\n<Clock xmlns:dt=""urn:schemas-microsoft-com:datatypes""><Description dt:dt=""string"">E-Prime Primary Realtime Clock</Description><StartTime><Timestamp dt:dt=""int"">0</Timestamp><DateUtc dt:dt=""string"">2022-12-03T03:11:18Z</DateUtc></StartTime><FrequencyChanges><FrequencyChange><Frequency dt:dt=""r8"">10000000</Frequency><Timestamp dt:dt=""r8"">7541646162286</Timestamp><Current dt:dt=""r8"">0</Current><DateUtc dt:dt=""string"">2022-12-03T03:11:18Z</DateUtc></FrequencyChange></FrequencyChanges></Clock>\n",Wisconsin-1172-1,60.009,1.0.0.245,1,-313846870,3.0.3.80,3.0.3.80,12-03-2022,12/3/2022 3:11:19 AM,11:11:19,3.0.3.82,2,,,,,,,BlockProc2,List2,1,,,,,,,,,,,,,,,,,2.0,1.0,1.0,3.0,1.0,1.0,,,,NumberProc2,List4,,,,,,,,,6.0,Button1.png,Button2.png,Button3.png,Button4.png,Redstar1.png,,,,,,,{button4},0.0,,,,6.0,1.0,6.0,0.0,TrialProc,NumberList2,,,,,,,1.0,{button4},9.0,33.0,147691.0,0.0,{Button4},1324.0,number
Wisconsin,1172,1,"<?xml version=""1.0""?>\n<Clock xmlns:dt=""urn:schemas-microsoft-com:datatypes""><Description dt:dt=""string"">E-Prime Primary Realtime Clock</Description><StartTime><Timestamp dt:dt=""int"">0</Timestamp><DateUtc dt:dt=""string"">2022-12-03T03:11:18Z</DateUtc></StartTime><FrequencyChanges><FrequencyChange><Frequency dt:dt=""r8"">10000000</Frequency><Timestamp dt:dt=""r8"">7541646162286</Timestamp><Current dt:dt=""r8"">0</Current><DateUtc dt:dt=""string"">2022-12-03T03:11:18Z</DateUtc></FrequencyChange></FrequencyChanges></Clock>\n",Wisconsin-1172-1,60.009,1.0.0.245,1,-313846870,3.0.3.80,3.0.3.80,12-03-2022,12/3/2022 3:11:19 AM,11:11:19,3.0.3.82,2,,,,,,,BlockProc2,List2,1,,,,,,,,,,,,,,,,,2.0,1.0,1.0,3.0,1.0,1.0,,,,NumberProc2,List4,,,,,,,,,7.0,Button1.png,Button2.png,Button3.png,Button4.png,Redtriangle2.png,,,,,,,{button1},0.0,,,,7.0,1.0,7.0,0.0,TrialProc,NumberList2,,,,,,,1.0,{button1},1.0,33.0,151590.0,0.0,{Button1},1473.0,number
Wisconsin,1172,1,"<?xml version=""1.0""?>\n<Clock xmlns:dt=""urn:schemas-microsoft-com:datatypes""><Description dt:dt=""string"">E-Prime Primary Realtime Clock</Description><StartTime><Timestamp dt:dt=""int"">0</Timestamp><DateUtc dt:dt=""string"">2022-12-03T03:11:18Z</DateUtc></StartTime><FrequencyChanges><FrequencyChange><Frequency dt:dt=""r8"">10000000</Frequency><Timestamp dt:dt=""r8"">7541646162286</Timestamp><Current dt:dt=""r8"">0</Current><DateUtc dt:dt=""string"">2022-12-03T03:11:18Z</DateUtc></FrequencyChange></FrequencyChanges></Clock>\n",Wisconsin-1172-1,60.009,1.0.0.245,1,-313846870,3.0.3.80,3.0.3.80,12-03-2022,12/3/2022 3:11:19 AM,11:11:19,3.0.3.82,2,,,,,,,BlockProc2,List2,1,,,,,,,,,,,,,,,,,2.0,1.0,1.0,3.0,1.0,1.0,,,,NumberProc2,List4,,,,,,,,,8.0,Button1.png,Button2.png,Button3.png,Button4.png,yellowcircle4.png,,,,,,,{button2},0.0,,,,8.0,1.0,8.0,0.0,TrialProc,NumberList2,,,,,,,1.0,{button2},9.0,33.0,155639.0,0.0,{Button2},1320.0,number
Wisconsin,1172,1,"<?xml version=""1.0""?>\n<Clock xmlns:dt=""urn:schemas-microsoft-com:datatypes""><Description dt:dt=""string"">E-Prime Primary Realtime Clock</Description><StartTime><Timestamp dt:dt=""int"">0</Timestamp><DateUtc dt:dt=""string"">2022-12-03T03:11:18Z</DateUtc></StartTime><FrequencyChanges><FrequencyChange><Frequency dt:dt=""r8"">10000000</Frequency><Timestamp dt:dt=""r8"">7541646162286</Timestamp><Current dt:dt=""r8"">0</Current><DateUtc dt:dt=""string"">2022-12-03T03:11:18Z</DateUtc></FrequencyChange></FrequencyChanges></Clock>\n",Wisconsin-1172-1,60.009,1.0.0.245,1,-313846870,3.0.3.80,3.0.3.80,12-03-2022,12/3/2022 3:11:19 AM,11:11:19,3.0.3.82,2,,,,,,,BlockProc2,List2,1,,,,,,,,,,,,,,,,,2.0,1.0,1.0,3.0,1.0,1.0,,,,NumberProc2,List4,,,,,,,,,9.0,Button1.png,Button2.png,Button3.png,Button4.png,Yellowcross2.png,,,,,,,{button1},0.0,,,,9.0,1.0,9.0,0.0,TrialProc,NumberList2,,,,,,,1.0,{button1},10.0,33.0,159538.0,0.0,{Button1},2253.0,number
Wisconsin,1172,1,"<?xml version=""1.0""?>\n<Clock xmlns:dt=""urn:schemas-microsoft-com:datatypes""><Description dt:dt=""string"">E-Prime Primary Realtime Clock</Description><StartTime><Timestamp dt:dt=""int"">0</Timestamp><DateUtc dt:dt=""string"">2022-12-03T03:11:18Z</DateUtc></StartTime><FrequencyChanges><FrequencyChange><Frequency dt:dt=""r8"">10000000</Frequency><Timestamp dt:dt=""r8"">7541646162286</Timestamp><Current dt:dt=""r8"">0</Current><DateUtc dt:dt=""string"">2022-12-03T03:11:18Z</DateUtc></FrequencyChange></FrequencyChanges></Clock>\n",Wisconsin-1172-1,60.009,1.0.0.245,1,-313846870,3.0.3.80,3.0.3.80,12-03-2022,12/3/2022 3:11:19 AM,11:11:19,3.0.3.82,2,,,,,,,BlockProc2,List2,1,,,,,,,,,,,,,,,,,2.0,1.0,1.0,3.0,1.0,1.0,,,,NumberProc2,List4,,,,,,,,,10.0,Button1.png,Button2.png,Button3.png,Button4.png,Yellowtriangle2.png,,,,,,,{button3},0.0,,,,10.0,1.0,10.0,0.0,TrialProc,NumberList2,,,,,,,0.0,{button3},3.0,33.0,164370.0,0.0,{Button1},1309.0,number
Wisconsin,1172,1,"<?xml version=""1.0""?>\n<Clock xmlns:dt=""urn:schemas-microsoft-com:datatypes""><Description dt:dt=""string"">E-Prime Primary Realtime Clock</Description><StartTime><Timestamp dt:dt=""int"">0</Timestamp><DateUtc dt:dt=""string"">2022-12-03T03:11:18Z</DateUtc></StartTime><FrequencyChanges><FrequencyChange><Frequency dt:dt=""r8"">10000000</Frequency><Timestamp dt:dt=""r8"">7541646162286</Timestamp><Current dt:dt=""r8"">0</Current><DateUtc dt:dt=""string"">2022-12-03T03:11:18Z</DateUtc></FrequencyChange></FrequencyChanges></Clock>\n",Wisconsin-1172-1,60.009,1.0.0.245,1,-313846870,3.0.3.80,3.0.3.80,12-03-2022,12/3/2022 3:11:19 AM,11:11:19,3.0.3.82,2,,,,,,,BlockProc2,List2,2,,,,,,,,,,,,,,,,,2.0,1.0,1.0,1.0,1.0,2.0,,,,ColorProc2,List4,,,,,,,,,1.0,BUTTON1.png,BUTTON2.PNG,BUTTON3.png,BUTTON4.png,Greencircle1.png,,,,3.0,1.0,1.0,{Button1},0.0,,,,,,,0.0,TrialProc,ColorList2,,,,,,,1.0,{Button1},10.0,50.0,168269.0,0.0,{Button1},2139.0,color
Wisconsin,1172,1,"<?xml version=""1.0""?>\n<Clock xmlns:dt=""urn:schemas-microsoft-com:datatypes""><Description dt:dt=""string"">E-Prime Primary Realtime Clock</Description><StartTime><Timestamp dt:dt=""int"">0</Timestamp><DateUtc dt:dt=""string"">2022-12-03T03:11:18Z</DateUtc></StartTime><FrequencyChanges><FrequencyChange><Frequency dt:dt=""r8"">10000000</Frequency><Timestamp dt:dt=""r8"">7541646162286</Timestamp><Current dt:dt=""r8"">0</Current><DateUtc dt:dt=""string"">2022-12-03T03:11:18Z</DateUtc></FrequencyChange></FrequencyChanges></Clock>\n",Wisconsin-1172-1,60.009,1.0.0.245,1,-313846870,3.0.3.80,3.0.3.80,12-03-2022,12/3/2022 3:11:19 AM,11:11:19,3.0.3.82,2,,,,,,,BlockProc2,List2,2,,,,,,,,,,,,,,,,,2.0,1.0,1.0,1.0,1.0,2.0,,,,ColorProc2,List4,,,,,,,,,2.0,BUTTON1.png,BUTTON2.PNG,BUTTON3.png,BUTTON4.png,Redcircle2.png,,,,7.0,1.0,2.0,{Button3},0.0,,,,,,,0.0,TrialProc,ColorList2,,,,,,,1.0,{Button3},1.0,34.0,172985.0,0.0,{Button3},1014.0,color
Wisconsin,1172,1,"<?xml version=""1.0""?>\n<Clock xmlns:dt=""urn:schemas-microsoft-com:datatypes""><Description dt:dt=""string"">E-Prime Primary Realtime Clock</Description><StartTime><Timestamp dt:dt=""int"">0</Timestamp><DateUtc dt:dt=""string"">2022-12-03T03:11:18Z</DateUtc></StartTime><FrequencyChanges><FrequencyChange><Frequency dt:dt=""r8"">10000000</Frequency><Timestamp dt:dt=""r8"">7541646162286</Timestamp><Current dt:dt=""r8"">0</Current><DateUtc dt:dt=""string"">2022-12-03T03:11:18Z</DateUtc></FrequencyChange></FrequencyChanges></Clock>\n",Wisconsin-1172-1,60.009,1.0.0.245,1,-313846870,3.0.3.80,3.0.3.80,12-03-2022,12/3/2022 3:11:19 AM,11:11:19,3.0.3.82,2,,,,,,,BlockProc2,List2,2,,,,,,,,,,,,,,,,,2.0,1.0,1.0,1.0,1.0,2.0,,,,ColorProc2,List4,,,,,,,,,3.0,BUTTON1.png,BUTTON2.PNG,BUTTON3.png,BUTTON4.png,yellowtriangle3.png,,,,10.0,1.0,3.0,{Button2},0.0,,,,,,,0.0,TrialProc,ColorList2,,,,,,,1.0,{Button2},2.0,49.0,176600.0,0.0,{Button2},879.0,color
Wisconsin,1172,1,"<?xml version=""1.0""?>\n<Clock xmlns:dt=""urn:schemas-microsoft-com:datatypes""><Description dt:dt=""string"">E-Prime Primary Realtime Clock</Description><StartTime><Timestamp dt:dt=""int"">0</Timestamp><DateUtc dt:dt=""string"">2022-12-03T03:11:18Z</DateUtc></StartTime><FrequencyChanges><FrequencyChange><Frequency dt:dt=""r8"">10000000</Frequency><Timestamp dt:dt=""r8"">7541646162286</Timestamp><Current dt:dt=""r8"">0</Current><DateUtc dt:dt=""string"">2022-12-03T03:11:18Z</DateUtc></FrequencyChange></FrequencyChanges></Clock>\n",Wisconsin-1172-1,60.009,1.0.0.245,1,-313846870,3.0.3.80,3.0.3.80,12-03-2022,12/3/2022 3:11:19 AM,11:11:19,3.0.3.82,2,,,,,,,BlockProc2,List2,2,,,,,,,,,,,,,,,,,2.0,1.0,1.0,1.0,1.0,2.0,,,,ColorProc2,List4,,,,,,,,,4.0,BUTTON1.png,BUTTON2.PNG,BUTTON3.png,BUTTON4.png,greenstar4.png,,,,5.0,1.0,4.0,{Button1},0.0,,,,,,,0.0,TrialProc,ColorList2,,,,,,,1.0,{Button1},11.0,33.0,180066.0,0.0,{Button1},1413.0,color
Wisconsin,1172,1,"<?xml version=""1.0""?>\n<Clock xmlns:dt=""urn:schemas-microsoft-com:datatypes""><Description dt:dt=""string"">E-Prime Primary Realtime Clock</Description><StartTime><Timestamp dt:dt=""int"">0</Timestamp><DateUtc dt:dt=""string"">2022-12-03T03:11:18Z</DateUtc></StartTime><FrequencyChanges><FrequencyChange><Frequency dt:dt=""r8"">10000000</Frequency><Timestamp dt:dt=""r8"">7541646162286</Timestamp><Current dt:dt=""r8"">0</Current><DateUtc dt:dt=""string"">2022-12-03T03:11:18Z</DateUtc></FrequencyChange></FrequencyChanges></Clock>\n",Wisconsin-1172-1,60.009,1.0.0.245,1,-313846870,3.0.3.80,3.0.3.80,12-03-2022,12/3/2022 3:11:19 AM,11:11:19,3.0.3.82,2,,,,,,,BlockProc2,List2,2,,,,,,,,,,,,,,,,,2.0,1.0,1.0,1.0,1.0,2.0,,,,ColorProc2,List4,,,,,,,,,5.0,BUTTON1.png,BUTTON2.PNG,BUTTON3.png,BUTTON4.png,yellowcircle2.png,,,,9.0,1.0,5.0,{Button2},0.0,,,,,,,0.0,TrialProc,ColorList2,,,,,,,1.0,{Button2},9.0,33.0,184065.0,0.0,{Button2},1382.0,color
Wisconsin,1172,1,"<?xml version=""1.0""?>\n<Clock xmlns:dt=""urn:schemas-microsoft-com:datatypes""><Description dt:dt=""string"">E-Prime Primary Realtime Clock</Description><StartTime><Timestamp dt:dt=""int"">0</Timestamp><DateUtc dt:dt=""string"">2022-12-03T03:11:18Z</DateUtc></StartTime><FrequencyChanges><FrequencyChange><Frequency dt:dt=""r8"">10000000</Frequency><Timestamp dt:dt=""r8"">7541646162286</Timestamp><Current dt:dt=""r8"">0</Current><DateUtc dt:dt=""string"">2022-12-03T03:11:18Z</DateUtc></FrequencyChange></FrequencyChanges></Clock>\n",Wisconsin-1172-1,60.009,1.0.0.245,1,-313846870,3.0.3.80,3.0.3.80,12-03-2022,12/3/2022 3:11:19 AM,11:11:19,3.0.3.82,2,,,,,,,BlockProc2,List2,2,,,,,,,,,,,,,,,,,2.0,1.0,1.0,1.0,1.0,2.0,,,,ColorProc2,List4,,,,,,,,,6.0,BUTTON1.png,BUTTON2.PNG,BUTTON3.png,BUTTON4.png,greencross4.png,,,,4.0,1.0,6.0,{Button1},0.0,,,,,,,0.0,TrialProc,ColorList2,,,,,,,1.0,{Button1},10.0,33.0,188031.0,0.0,{Button1},1400.0,color
Wisconsin,1172,1,"<?xml version=""1.0""?>\n<Clock xmlns:dt=""urn:schemas-microsoft-com:datatypes""><Description dt:dt=""string"">E-Prime Primary Realtime Clock</Description><StartTime><Timestamp dt:dt=""int"">0</Timestamp><DateUtc dt:dt=""string"">2022-12-03T03:11:18Z</DateUtc></StartTime><FrequencyChanges><FrequencyChange><Frequency dt:dt=""r8"">10000000</Frequency><Timestamp dt:dt=""r8"">7541646162286</Timestamp><Current dt:dt=""r8"">0</Current><DateUtc dt:dt=""string"">2022-12-03T03:11:18Z</DateUtc></FrequencyChange></FrequencyChanges></Clock>\n",Wisconsin-1172-1,60.009,1.0.0.245,1,-313846870,3.0.3.80,3.0.3.80,12-03-2022,12/3/2022 3:11:19 AM,11:11:19,3.0.3.82,2,,,,,,,BlockProc2,List2,2,,,,,,,,,,,,,,,,,2.0,1.0,1.0,1.0,1.0,2.0,,,,ColorProc2,List4,,,,,,,,,7.0,BUTTON1.png,BUTTON2.PNG,BUTTON3.png,BUTTON4.png,bluecross1.png,,,,1.0,1.0,7.0,{Button4},0.0,,,,,,,0.0,TrialProc,ColorList2,,,,,,,1.0,{Button4},2.0,33.0,192013.0,0.0,{Button4},1242.0,color
Wisconsin,1172,1,"<?xml version=""1.0""?>\n<Clock xmlns:dt=""urn:schemas-microsoft-com:datatypes""><Description dt:dt=""string"">E-Prime Primary Realtime Clock</Description><StartTime><Timestamp dt:dt=""int"">0</Timestamp><DateUtc dt:dt=""string"">2022-12-03T03:11:18Z</DateUtc></StartTime><FrequencyChanges><FrequencyChange><Frequency dt:dt=""r8"">10000000</Frequency><Timestamp dt:dt=""r8"">7541646162286</Timestamp><Current dt:dt=""r8"">0</Current><DateUtc dt:dt=""string"">2022-12-03T03:11:18Z</DateUtc></FrequencyChange></FrequencyChanges></Clock>\n",Wisconsin-1172-1,60.009,1.0.0.245,1,-313846870,3.0.3.80,3.0.3.80,12-03-2022,12/3/2022 3:11:19 AM,11:11:19,3.0.3.82,2,,,,,,,BlockProc2,List2,2,,,,,,,,,,,,,,,,,2.0,1.0,1.0,1.0,1.0,2.0,,,,ColorProc2,List4,,,,,,,,,8.0,BUTTON1.png,BUTTON2.PNG,BUTTON3.png,BUTTON4.png,bluestar3.png,,,,2.0,1.0,8.0,{Button4},0.0,,,,,,,0.0,TrialProc,ColorList2,,,,,,,1.0,{Button4},2.0,33.0,195829.0,0.0,{Button4},1171.0,color
Wisconsin,1172,1,"<?xml version=""1.0""?>\n<Clock xmlns:dt=""urn:schemas-microsoft-com:datatypes""><Description dt:dt=""string"">E-Prime Primary Realtime Clock</Description><StartTime><Timestamp dt:dt=""int"">0</Timestamp><DateUtc dt:dt=""string"">2022-12-03T03:11:18Z</DateUtc></StartTime><FrequencyChanges><FrequencyChange><Frequency dt:dt=""r8"">10000000</Frequency><Timestamp dt:dt=""r8"">7541646162286</Timestamp><Current dt:dt=""r8"">0</Current><DateUtc dt:dt=""string"">2022-12-03T03:11:18Z</DateUtc></FrequencyChange></FrequencyChanges></Clock>\n",Wisconsin-1172-1,60.009,1.0.0.245,1,-313846870,3.0.3.80,3.0.3.80,12-03-2022,12/3/2022 3:11:19 AM,11:11:19,3.0.3.82,2,,,,,,,BlockProc2,List2,2,,,,,,,,,,,,,,,,,2.0,1.0,1.0,1.0,1.0,2.0,,,,ColorProc2,List4,,,,,,,,,9.0,BUTTON1.png,BUTTON2.PNG,BUTTON3.png,BUTTON4.png,redstar4.png,,,,8.0,1.0,9.0,{Button3},0.0,,,,,,,0.0,TrialProc,ColorList2,,,,,,,1.0,{Button3},9.0,50.0,199595.0,0.0,{Button3},892.0,color
Wisconsin,1172,1,"<?xml version=""1.0""?>\n<Clock xmlns:dt=""urn:schemas-microsoft-com:datatypes""><Description dt:dt=""string"">E-Prime Primary Realtime Clock</Description><StartTime><Timestamp dt:dt=""int"">0</Timestamp><DateUtc dt:dt=""string"">2022-12-03T03:11:18Z</DateUtc></StartTime><FrequencyChanges><FrequencyChange><Frequency dt:dt=""r8"">10000000</Frequency><Timestamp dt:dt=""r8"">7541646162286</Timestamp><Current dt:dt=""r8"">0</Current><DateUtc dt:dt=""string"">2022-12-03T03:11:18Z</DateUtc></FrequencyChange></FrequencyChanges></Clock>\n",Wisconsin-1172-1,60.009,1.0.0.245,1,-313846870,3.0.3.80,3.0.3.80,12-03-2022,12/3/2022 3:11:19 AM,11:11:19,3.0.3.82,2,,,,,,,BlockProc2,List2,2,,,,,,,,,,,,,,,,,2.0,1.0,1.0,1.0,1.0,2.0,,,,ColorProc2,List4,,,,,,,,,10.0,BUTTON1.png,BUTTON2.PNG,BUTTON3.png,BUTTON4.png,greentriangle2.png,,,,6.0,1.0,10.0,{Button1},0.0,,,,,,,0.0,TrialProc,ColorList2,,,,,,,1.0,{Button1},10.0,34.0,203061.0,0.0,{Button1},1058.0,color
Wisconsin,1172,1,"<?xml version=""1.0""?>\n<Clock xmlns:dt=""urn:schemas-microsoft-com:datatypes""><Description dt:dt=""string"">E-Prime Primary Realtime Clock</Description><StartTime><Timestamp dt:dt=""int"">0</Timestamp><DateUtc dt:dt=""string"">2022-12-03T03:11:18Z</DateUtc></StartTime><FrequencyChanges><FrequencyChange><Frequency dt:dt=""r8"">10000000</Frequency><Timestamp dt:dt=""r8"">7541646162286</Timestamp><Current dt:dt=""r8"">0</Current><DateUtc dt:dt=""string"">2022-12-03T03:11:18Z</DateUtc></FrequencyChange></FrequencyChanges></Clock>\n",Wisconsin-1172-1,60.009,1.0.0.245,1,-313846870,3.0.3.80,3.0.3.80,12-03-2022,12/3/2022 3:11:19 AM,11:11:19,3.0.3.82,2,,,,,,,BlockProc2,List2,3,,,,,,,,,,,,,,,,,2.0,1.0,1.0,2.0,1.0,3.0,,,,ShapeProc2,List4,,,,,,,,,1.0,Button1.png,Button2.png,Button3.png,Button4.png,Yellowstar2.png,,,,,,,{button4},0.0,,,,,,,0.0,TrialProc,ShapeList2,,,,9.0,1.0,1.0,0.0,{button4},10.0,50.0,206710.0,0.0,{Button2},1042.0,Shape
Wisconsin,1172,1,"<?xml version=""1.0""?>\n<Clock xmlns:dt=""urn:schemas-microsoft-com:datatypes""><Description dt:dt=""string"">E-Prime Primary Realtime Clock</Description><StartTime><Timestamp dt:dt=""int"">0</Timestamp><DateUtc dt:dt=""string"">2022-12-03T03:11:18Z</DateUtc></StartTime><FrequencyChanges><FrequencyChange><Frequency dt:dt=""r8"">10000000</Frequency><Timestamp dt:dt=""r8"">7541646162286</Timestamp><Current dt:dt=""r8"">0</Current><DateUtc dt:dt=""string"">2022-12-03T03:11:18Z</DateUtc></FrequencyChange></FrequencyChanges></Clock>\n",Wisconsin-1172-1,60.009,1.0.0.245,1,-313846870,3.0.3.80,3.0.3.80,12-03-2022,12/3/2022 3:11:19 AM,11:11:19,3.0.3.82,2,,,,,,,BlockProc2,List2,3,,,,,,,,,,,,,,,,,2.0,1.0,1.0,2.0,1.0,3.0,,,,ShapeProc2,List4,,,,,,,,,2.0,Button1.png,Button2.png,Button3.png,Button4.png,Bluetriangle2.png,,,,,,,{button2},0.0,,,,,,,0.0,TrialProc,ShapeList2,,,,2.0,1.0,2.0,1.0,{button2},2.0,33.0,210325.0,0.0,{Button2},1562.0,Shape
Wisconsin,1172,1,"<?xml version=""1.0""?>\n<Clock xmlns:dt=""urn:schemas-microsoft-com:datatypes""><Description dt:dt=""string"">E-Prime Primary Realtime Clock</Description><StartTime><Timestamp dt:dt=""int"">0</Timestamp><DateUtc dt:dt=""string"">2022-12-03T03:11:18Z</DateUtc></StartTime><FrequencyChanges><FrequencyChange><Frequency dt:dt=""r8"">10000000</Frequency><Timestamp dt:dt=""r8"">7541646162286</Timestamp><Current dt:dt=""r8"">0</Current><DateUtc dt:dt=""string"">2022-12-03T03:11:18Z</DateUtc></FrequencyChange></FrequencyChanges></Clock>\n",Wisconsin-1172-1,60.009,1.0.0.245,1,-313846870,3.0.3.80,3.0.3.80,12-03-2022,12/3/2022 3:11:19 AM,11:11:19,3.0.3.82,2,,,,,,,BlockProc2,List2,3,,,,,,,,,,,,,,,,,2.0,1.0,1.0,2.0,1.0,3.0,,,,ShapeProc2,List4,,,,,,,,,3.0,Button1.png,Button2.png,Button3.png,Button4.png,Bluecircle3.png,,,,,,,{button1},0.0,,,,,,,0.0,TrialProc,ShapeList2,,,,1.0,1.0,3.0,1.0,{button1},11.0,33.0,214474.0,0.0,{Button1},2278.0,Shape
Wisconsin,1172,1,"<?xml version=""1.0""?>\n<Clock xmlns:dt=""urn:schemas-microsoft-com:datatypes""><Description dt:dt=""string"">E-Prime Primary Realtime Clock</Description><StartTime><Timestamp dt:dt=""int"">0</Timestamp><DateUtc dt:dt=""string"">2022-12-03T03:11:18Z</DateUtc></StartTime><FrequencyChanges><FrequencyChange><Frequency dt:dt=""r8"">10000000</Frequency><Timestamp dt:dt=""r8"">7541646162286</Timestamp><Current dt:dt=""r8"">0</Current><DateUtc dt:dt=""string"">2022-12-03T03:11:18Z</DateUtc></FrequencyChange></FrequencyChanges></Clock>\n",Wisconsin-1172-1,60.009,1.0.0.245,1,-313846870,3.0.3.80,3.0.3.80,12-03-2022,12/3/2022 3:11:19 AM,11:11:19,3.0.3.82,2,,,,,,,BlockProc2,List2,3,,,,,,,,,,,,,,,,,2.0,1.0,1.0,2.0,1.0,3.0,,,,ShapeProc2,List4,,,,,,,,,4.0,Button1.png,Button2.png,Button3.png,Button4.png,Yellowtriangle1.png,,,,,,,{button2},0.0,,,,,,,0.0,TrialProc,ShapeList2,,,,10.0,1.0,4.0,1.0,{button2},2.0,33.0,219323.0,0.0,{Button2},1125.0,Shape
Wisconsin,1172,1,"<?xml version=""1.0""?>\n<Clock xmlns:dt=""urn:schemas-microsoft-com:datatypes""><Description dt:dt=""string"">E-Prime Primary Realtime Clock</Description><StartTime><Timestamp dt:dt=""int"">0</Timestamp><DateUtc dt:dt=""string"">2022-12-03T03:11:18Z</DateUtc></StartTime><FrequencyChanges><FrequencyChange><Frequency dt:dt=""r8"">10000000</Frequency><Timestamp dt:dt=""r8"">7541646162286</Timestamp><Current dt:dt=""r8"">0</Current><DateUtc dt:dt=""string"">2022-12-03T03:11:18Z</DateUtc></FrequencyChange></FrequencyChanges></Clock>\n",Wisconsin-1172-1,60.009,1.0.0.245,1,-313846870,3.0.3.80,3.0.3.80,12-03-2022,12/3/2022 3:11:19 AM,11:11:19,3.0.3.82,2,,,,,,,BlockProc2,List2,3,,,,,,,,,,,,,,,,,2.0,1.0,1.0,2.0,1.0,3.0,,,,ShapeProc2,List4,,,,,,,,,5.0,Button1.png,Button2.png,Button3.png,Button4.png,Redcross2.png,,,,,,,{button3},0.0,,,,,,,0.0,TrialProc,ShapeList2,,,,5.0,1.0,5.0,1.0,{button3},11.0,33.0,223022.0,0.0,{Button3},1138.0,Shape
Wisconsin,1172,1,"<?xml version=""1.0""?>\n<Clock xmlns:dt=""urn:schemas-microsoft-com:datatypes""><Description dt:dt=""string"">E-Prime Primary Realtime Clock</Description><StartTime><Timestamp dt:dt=""int"">0</Timestamp><DateUtc dt:dt=""string"">2022-12-03T03:11:18Z</DateUtc></StartTime><FrequencyChanges><FrequencyChange><Frequency dt:dt=""r8"">10000000</Frequency><Timestamp dt:dt=""r8"">7541646162286</Timestamp><Current dt:dt=""r8"">0</Current><DateUtc dt:dt=""string"">2022-12-03T03:11:18Z</DateUtc></FrequencyChange></FrequencyChanges></Clock>\n",Wisconsin-1172-1,60.009,1.0.0.245,1,-313846870,3.0.3.80,3.0.3.80,12-03-2022,12/3/2022 3:11:19 AM,11:11:19,3.0.3.82,2,,,,,,,BlockProc2,List2,3,,,,,,,,,,,,,,,,,2.0,1.0,1.0,2.0,1.0,3.0,,,,ShapeProc2,List4,,,,,,,,,6.0,Button1.png,Button2.png,Button3.png,Button4.png,Redtriangle3.png,,,,,,,{button2},0.0,,,,,,,0.0,TrialProc,ShapeList2,,,,7.0,1.0,6.0,1.0,{button2},10.0,33.0,226738.0,0.0,{Button2},1294.0,Shape
Wisconsin,1172,1,"<?xml version=""1.0""?>\n<Clock xmlns:dt=""urn:schemas-microsoft-com:datatypes""><Description dt:dt=""string"">E-Prime Primary Realtime Clock</Description><StartTime><Timestamp dt:dt=""int"">0</Timestamp><DateUtc dt:dt=""string"">2022-12-03T03:11:18Z</DateUtc></StartTime><FrequencyChanges><FrequencyChange><Frequency dt:dt=""r8"">10000000</Frequency><Timestamp dt:dt=""r8"">7541646162286</Timestamp><Current dt:dt=""r8"">0</Current><DateUtc dt:dt=""string"">2022-12-03T03:11:18Z</DateUtc></FrequencyChange></FrequencyChanges></Clock>\n",Wisconsin-1172-1,60.009,1.0.0.245,1,-313846870,3.0.3.80,3.0.3.80,12-03-2022,12/3/2022 3:11:19 AM,11:11:19,3.0.3.82,2,,,,,,,BlockProc2,List2,3,,,,,,,,,,,,,,,,,2.0,1.0,1.0,2.0,1.0,3.0,,,,ShapeProc2,List4,,,,,,,,,7.0,Button1.png,Button2.png,Button3.png,Button4.png,Greenstar3.png,,,,,,,{button4},0.0,,,,,,,0.0,TrialProc,ShapeList2,,,,3.0,1.0,7.0,1.0,{button4},9.0,33.0,230604.0,0.0,{Button4},2132.0,Shape
Wisconsin,1172,1,"<?xml version=""1.0""?>\n<Clock xmlns:dt=""urn:schemas-microsoft-com:datatypes""><Description dt:dt=""string"">E-Prime Primary Realtime Clock</Description><StartTime><Timestamp dt:dt=""int"">0</Timestamp><DateUtc dt:dt=""string"">2022-12-03T03:11:18Z</DateUtc></StartTime><FrequencyChanges><FrequencyChange><Frequency dt:dt=""r8"">10000000</Frequency><Timestamp dt:dt=""r8"">7541646162286</Timestamp><Current dt:dt=""r8"">0</Current><DateUtc dt:dt=""string"">2022-12-03T03:11:18Z</DateUtc></FrequencyChange></FrequencyChanges></Clock>\n",Wisconsin-1172-1,60.009,1.0.0.245,1,-313846870,3.0.3.80,3.0.3.80,12-03-2022,12/3/2022 3:11:19 AM,11:11:19,3.0.3.82,2,,,,,,,BlockProc2,List2,3,,,,,,,,,,,,,,,,,2.0,1.0,1.0,2.0,1.0,3.0,,,,ShapeProc2,List4,,,,,,,,,8.0,Button1.png,Button2.png,Button3.png,Button4.png,Redstar3.png,,,,,,,{button4},0.0,,,,,,,0.0,TrialProc,ShapeList2,,,,6.0,1.0,8.0,1.0,{button4},2.0,33.0,235319.0,0.0,{Button4},1816.0,Shape
Wisconsin,1172,1,"<?xml version=""1.0""?>\n<Clock xmlns:dt=""urn:schemas-microsoft-com:datatypes""><Description dt:dt=""string"">E-Prime Primary Realtime Clock</Description><StartTime><Timestamp dt:dt=""int"">0</Timestamp><DateUtc dt:dt=""string"">2022-12-03T03:11:18Z</DateUtc></StartTime><FrequencyChanges><FrequencyChange><Frequency dt:dt=""r8"">10000000</Frequency><Timestamp dt:dt=""r8"">7541646162286</Timestamp><Current dt:dt=""r8"">0</Current><DateUtc dt:dt=""string"">2022-12-03T03:11:18Z</DateUtc></FrequencyChange></FrequencyChanges></Clock>\n",Wisconsin-1172-1,60.009,1.0.0.245,1,-313846870,3.0.3.80,3.0.3.80,12-03-2022,12/3/2022 3:11:19 AM,11:11:19,3.0.3.82,2,,,,,,,BlockProc2,List2,3,,,,,,,,,,,,,,,,,2.0,1.0,1.0,2.0,1.0,3.0,,,,ShapeProc2,List4,,,,,,,,,9.0,Button1.png,Button2.png,Button3.png,Button4.png,yellowcross4.png,,,,,,,{button3},0.0,,,,,,,0.0,TrialProc,ShapeList2,,,,8.0,1.0,9.0,1.0,{button3},10.0,33.0,239718.0,0.0,{Button3},1194.0,Shape
Wisconsin,1172,1,"<?xml version=""1.0""?>\n<Clock xmlns:dt=""urn:schemas-microsoft-com:datatypes""><Description dt:dt=""string"">E-Prime Primary Realtime Clock</Description><StartTime><Timestamp dt:dt=""int"">0</Timestamp><DateUtc dt:dt=""string"">2022-12-03T03:11:18Z</DateUtc></StartTime><FrequencyChanges><FrequencyChange><Frequency dt:dt=""r8"">10000000</Frequency><Timestamp dt:dt=""r8"">7541646162286</Timestamp><Current dt:dt=""r8"">0</Current><DateUtc dt:dt=""string"">2022-12-03T03:11:18Z</DateUtc></FrequencyChange></FrequencyChanges></Clock>\n",Wisconsin-1172-1,60.009,1.0.0.245,1,-313846870,3.0.3.80,3.0.3.80,12-03-2022,12/3/2022 3:11:19 AM,11:11:19,3.0.3.82,2,,,,,,,BlockProc2,List2,3,,,,,,,,,,,,,,,,,2.0,1.0,1.0,2.0,1.0,3.0,,,,ShapeProc2,List4,,,,,,,,,10.0,Button1.png,Button2.png,Button3.png,Button4.png,redcircle1.png,,,,,,,{button1},0.0,,,,,,,0.0,TrialProc,ShapeList2,,,,4.0,1.0,10.0,1.0,{button1},10.0,33.0,243484.0,0.0,{Button1},1340.0,Shape
Wisconsin,1172,1,"<?xml version=""1.0""?>\n<Clock xmlns:dt=""urn:schemas-microsoft-com:datatypes""><Description dt:dt=""string"">E-Prime Primary Realtime Clock</Description><StartTime><Timestamp dt:dt=""int"">0</Timestamp><DateUtc dt:dt=""string"">2022-12-03T03:11:18Z</DateUtc></StartTime><FrequencyChanges><FrequencyChange><Frequency dt:dt=""r8"">10000000</Frequency><Timestamp dt:dt=""r8"">7541646162286</Timestamp><Current dt:dt=""r8"">0</Current><DateUtc dt:dt=""string"">2022-12-03T03:11:18Z</DateUtc></FrequencyChange></FrequencyChanges></Clock>\n",Wisconsin-1172-1,60.009,1.0.0.245,1,-313846870,3.0.3.80,3.0.3.80,12-03-2022,12/3/2022 3:11:19 AM,11:11:19,3.0.3.82,3,,,,1.0,1.0,1.0,BlockProc,List2,1,,,,,,,,,,,,,,,,,1.0,1.0,2.0,,,,,,,ColorProc,List3,,,,,,,,,1.0,BUTTON1.png,BUTTON2.PNG,BUTTON3.png,BUTTON4.png,greentriangle3.png,7.0,1.0,1.0,,,,{button1},0.0,,,,,,,0.0,TrialProc,ColorList,,,,,,,0.0,{button1},9.0,33.0,247400.0,0.0,{Button2},1456.0,Color
Wisconsin,1172,1,"<?xml version=""1.0""?>\n<Clock xmlns:dt=""urn:schemas-microsoft-com:datatypes""><Description dt:dt=""string"">E-Prime Primary Realtime Clock</Description><StartTime><Timestamp dt:dt=""int"">0</Timestamp><DateUtc dt:dt=""string"">2022-12-03T03:11:18Z</DateUtc></StartTime><FrequencyChanges><FrequencyChange><Frequency dt:dt=""r8"">10000000</Frequency><Timestamp dt:dt=""r8"">7541646162286</Timestamp><Current dt:dt=""r8"">0</Current><DateUtc dt:dt=""string"">2022-12-03T03:11:18Z</DateUtc></FrequencyChange></FrequencyChanges></Clock>\n",Wisconsin-1172-1,60.009,1.0.0.245,1,-313846870,3.0.3.80,3.0.3.80,12-03-2022,12/3/2022 3:11:19 AM,11:11:19,3.0.3.82,3,,,,1.0,1.0,1.0,BlockProc,List2,1,,,,,,,,,,,,,,,,,1.0,1.0,2.0,,,,,,,ColorProc,List3,,,,,,,,,2.0,BUTTON1.png,BUTTON2.PNG,BUTTON3.png,BUTTON4.png,bluetriangle3.png,3.0,1.0,2.0,,,,{button4},0.0,,,,,,,0.0,TrialProc,ColorList,,,,,,,1.0,{button4},10.0,33.0,251432.0,0.0,{Button4},1344.0,Color
Wisconsin,1172,1,"<?xml version=""1.0""?>\n<Clock xmlns:dt=""urn:schemas-microsoft-com:datatypes""><Description dt:dt=""string"">E-Prime Primary Realtime Clock</Description><StartTime><Timestamp dt:dt=""int"">0</Timestamp><DateUtc dt:dt=""string"">2022-12-03T03:11:18Z</DateUtc></StartTime><FrequencyChanges><FrequencyChange><Frequency dt:dt=""r8"">10000000</Frequency><Timestamp dt:dt=""r8"">7541646162286</Timestamp><Current dt:dt=""r8"">0</Current><DateUtc dt:dt=""string"">2022-12-03T03:11:18Z</DateUtc></FrequencyChange></FrequencyChanges></Clock>\n",Wisconsin-1172-1,60.009,1.0.0.245,1,-313846870,3.0.3.80,3.0.3.80,12-03-2022,12/3/2022 3:11:19 AM,11:11:19,3.0.3.82,3,,,,1.0,1.0,1.0,BlockProc,List2,1,,,,,,,,,,,,,,,,,1.0,1.0,2.0,,,,,,,ColorProc,List3,,,,,,,,,3.0,BUTTON1.png,BUTTON2.PNG,BUTTON3.png,BUTTON4.png,redcircle3.png,8.0,1.0,3.0,,,,{button3},0.0,,,,,,,0.0,TrialProc,ColorList,,,,,,,1.0,{button3},9.0,33.0,255348.0,0.0,{Button3},1020.0,Color
Wisconsin,1172,1,"<?xml version=""1.0""?>\n<Clock xmlns:dt=""urn:schemas-microsoft-com:datatypes""><Description dt:dt=""string"">E-Prime Primary Realtime Clock</Description><StartTime><Timestamp dt:dt=""int"">0</Timestamp><DateUtc dt:dt=""string"">2022-12-03T03:11:18Z</DateUtc></StartTime><FrequencyChanges><FrequencyChange><Frequency dt:dt=""r8"">10000000</Frequency><Timestamp dt:dt=""r8"">7541646162286</Timestamp><Current dt:dt=""r8"">0</Current><DateUtc dt:dt=""string"">2022-12-03T03:11:18Z</DateUtc></FrequencyChange></FrequencyChanges></Clock>\n",Wisconsin-1172-1,60.009,1.0.0.245,1,-313846870,3.0.3.80,3.0.3.80,12-03-2022,12/3/2022 3:11:19 AM,11:11:19,3.0.3.82,3,,,,1.0,1.0,1.0,BlockProc,List2,1,,,,,,,,,,,,,,,,,1.0,1.0,2.0,,,,,,,ColorProc,List3,,,,,,,,,4.0,BUTTON1.png,BUTTON2.PNG,BUTTON3.png,BUTTON4.png,greencircle3.png,4.0,1.0,4.0,,,,{button1},0.0,,,,,,,0.0,TrialProc,ColorList,,,,,,,1.0,{button1},10.0,50.0,258964.0,0.0,{Button1},811.0,Color
Wisconsin,1172,1,"<?xml version=""1.0""?>\n<Clock xmlns:dt=""urn:schemas-microsoft-com:datatypes""><Description dt:dt=""string"">E-Prime Primary Realtime Clock</Description><StartTime><Timestamp dt:dt=""int"">0</Timestamp><DateUtc dt:dt=""string"">2022-12-03T03:11:18Z</DateUtc></StartTime><FrequencyChanges><FrequencyChange><Frequency dt:dt=""r8"">10000000</Frequency><Timestamp dt:dt=""r8"">7541646162286</Timestamp><Current dt:dt=""r8"">0</Current><DateUtc dt:dt=""string"">2022-12-03T03:11:18Z</DateUtc></FrequencyChange></FrequencyChanges></Clock>\n",Wisconsin-1172-1,60.009,1.0.0.245,1,-313846870,3.0.3.80,3.0.3.80,12-03-2022,12/3/2022 3:11:19 AM,11:11:19,3.0.3.82,3,,,,1.0,1.0,1.0,BlockProc,List2,1,,,,,,,,,,,,,,,,,1.0,1.0,2.0,,,,,,,ColorProc,List3,,,,,,,,,5.0,BUTTON1.png,BUTTON2.PNG,BUTTON3.png,BUTTON4.png,yellowstar3.png,10.0,1.0,5.0,,,,{button2},0.0,,,,,,,0.0,TrialProc,ColorList,,,,,,,1.0,{button2},9.0,33.0,262363.0,0.0,{Button2},2061.0,Color
Wisconsin,1172,1,"<?xml version=""1.0""?>\n<Clock xmlns:dt=""urn:schemas-microsoft-com:datatypes""><Description dt:dt=""string"">E-Prime Primary Realtime Clock</Description><StartTime><Timestamp dt:dt=""int"">0</Timestamp><DateUtc dt:dt=""string"">2022-12-03T03:11:18Z</DateUtc></StartTime><FrequencyChanges><FrequencyChange><Frequency dt:dt=""r8"">10000000</Frequency><Timestamp dt:dt=""r8"">7541646162286</Timestamp><Current dt:dt=""r8"">0</Current><DateUtc dt:dt=""string"">2022-12-03T03:11:18Z</DateUtc></FrequencyChange></FrequencyChanges></Clock>\n",Wisconsin-1172-1,60.009,1.0.0.245,1,-313846870,3.0.3.80,3.0.3.80,12-03-2022,12/3/2022 3:11:19 AM,11:11:19,3.0.3.82,3,,,,1.0,1.0,1.0,BlockProc,List2,1,,,,,,,,,,,,,,,,,1.0,1.0,2.0,,,,,,,ColorProc,List3,,,,,,,,,6.0,BUTTON1.png,BUTTON2.PNG,BUTTON3.png,BUTTON4.png,bluecircle1.png,1.0,1.0,6.0,,,,{button4},0.0,,,,,,,0.0,TrialProc,ColorList,,,,,,,1.0,{button4},9.0,33.0,266995.0,0.0,{Button4},1668.0,Color
Wisconsin,1172,1,"<?xml version=""1.0""?>\n<Clock xmlns:dt=""urn:schemas-microsoft-com:datatypes""><Description dt:dt=""string"">E-Prime Primary Realtime Clock</Description><StartTime><Timestamp dt:dt=""int"">0</Timestamp><DateUtc dt:dt=""string"">2022-12-03T03:11:18Z</DateUtc></StartTime><FrequencyChanges><FrequencyChange><Frequency dt:dt=""r8"">10000000</Frequency><Timestamp dt:dt=""r8"">7541646162286</Timestamp><Current dt:dt=""r8"">0</Current><DateUtc dt:dt=""string"">2022-12-03T03:11:18Z</DateUtc></FrequencyChange></FrequencyChanges></Clock>\n",Wisconsin-1172-1,60.009,1.0.0.245,1,-313846870,3.0.3.80,3.0.3.80,12-03-2022,12/3/2022 3:11:19 AM,11:11:19,3.0.3.82,3,,,,1.0,1.0,1.0,BlockProc,List2,1,,,,,,,,,,,,,,,,,1.0,1.0,2.0,,,,,,,ColorProc,List3,,,,,,,,,7.0,BUTTON1.png,BUTTON2.PNG,BUTTON3.png,BUTTON4.png,yellowcircle1.png,9.0,1.0,7.0,,,,{button2},0.0,,,,,,,0.0,TrialProc,ColorList,,,,,,,1.0,{button2},2.0,33.0,271244.0,0.0,{Button2},996.0,Color
Wisconsin,1172,1,"<?xml version=""1.0""?>\n<Clock xmlns:dt=""urn:schemas-microsoft-com:datatypes""><Description dt:dt=""string"">E-Prime Primary Realtime Clock</Description><StartTime><Timestamp dt:dt=""int"">0</Timestamp><DateUtc dt:dt=""string"">2022-12-03T03:11:18Z</DateUtc></StartTime><FrequencyChanges><FrequencyChange><Frequency dt:dt=""r8"">10000000</Frequency><Timestamp dt:dt=""r8"">7541646162286</Timestamp><Current dt:dt=""r8"">0</Current><DateUtc dt:dt=""string"">2022-12-03T03:11:18Z</DateUtc></FrequencyChange></FrequencyChanges></Clock>\n",Wisconsin-1172-1,60.009,1.0.0.245,1,-313846870,3.0.3.80,3.0.3.80,12-03-2022,12/3/2022 3:11:19 AM,11:11:19,3.0.3.82,3,,,,1.0,1.0,1.0,BlockProc,List2,1,,,,,,,,,,,,,,,,,1.0,1.0,2.0,,,,,,,ColorProc,List3,,,,,,,,,8.0,BUTTON1.png,BUTTON2.PNG,BUTTON3.png,BUTTON4.png,bluecross2.png,2.0,1.0,8.0,,,,{button4},0.0,,,,,,,0.0,TrialProc,ColorList,,,,,,,0.0,{button4},10.0,33.0,274826.0,0.0,{Button3},1005.0,Color
Wisconsin,1172,1,"<?xml version=""1.0""?>\n<Clock xmlns:dt=""urn:schemas-microsoft-com:datatypes""><Description dt:dt=""string"">E-Prime Primary Realtime Clock</Description><StartTime><Timestamp dt:dt=""int"">0</Timestamp><DateUtc dt:dt=""string"">2022-12-03T03:11:18Z</DateUtc></StartTime><FrequencyChanges><FrequencyChange><Frequency dt:dt=""r8"">10000000</Frequency><Timestamp dt:dt=""r8"">7541646162286</Timestamp><Current dt:dt=""r8"">0</Current><DateUtc dt:dt=""string"">2022-12-03T03:11:18Z</DateUtc></FrequencyChange></FrequencyChanges></Clock>\n",Wisconsin-1172-1,60.009,1.0.0.245,1,-313846870,3.0.3.80,3.0.3.80,12-03-2022,12/3/2022 3:11:19 AM,11:11:19,3.0.3.82,3,,,,1.0,1.0,1.0,BlockProc,List2,1,,,,,,,,,,,,,,,,,1.0,1.0,2.0,,,,,,,ColorProc,List3,,,,,,,,,9.0,BUTTON1.png,BUTTON2.PNG,BUTTON3.png,BUTTON4.png,greentriangle1.png,6.0,1.0,9.0,,,,{button1},0.0,,,,,,,0.0,TrialProc,ColorList,,,,,,,1.0,{button1},10.0,33.0,278409.0,0.0,{Button1},1119.0,Color
Wisconsin,1172,1,"<?xml version=""1.0""?>\n<Clock xmlns:dt=""urn:schemas-microsoft-com:datatypes""><Description dt:dt=""string"">E-Prime Primary Realtime Clock</Description><StartTime><Timestamp dt:dt=""int"">0</Timestamp><DateUtc dt:dt=""string"">2022-12-03T03:11:18Z</DateUtc></StartTime><FrequencyChanges><FrequencyChange><Frequency dt:dt=""r8"">10000000</Frequency><Timestamp dt:dt=""r8"">7541646162286</Timestamp><Current dt:dt=""r8"">0</Current><DateUtc dt:dt=""string"">2022-12-03T03:11:18Z</DateUtc></FrequencyChange></FrequencyChanges></Clock>\n",Wisconsin-1172-1,60.009,1.0.0.245,1,-313846870,3.0.3.80,3.0.3.80,12-03-2022,12/3/2022 3:11:19 AM,11:11:19,3.0.3.82,3,,,,1.0,1.0,1.0,BlockProc,List2,1,,,,,,,,,,,,,,,,,1.0,1.0,2.0,,,,,,,ColorProc,List3,,,,,,,,,10.0,BUTTON1.png,BUTTON2.PNG,BUTTON3.png,BUTTON4.png,greenstar2.png,5.0,1.0,10.0,,,,{button1},0.0,,,,,,,0.0,TrialProc,ColorList,,,,,,,1.0,{button1},10.0,33.0,282108.0,0.0,{Button1},828.0,Color
Wisconsin,1172,1,"<?xml version=""1.0""?>\n<Clock xmlns:dt=""urn:schemas-microsoft-com:datatypes""><Description dt:dt=""string"">E-Prime Primary Realtime Clock</Description><StartTime><Timestamp dt:dt=""int"">0</Timestamp><DateUtc dt:dt=""string"">2022-12-03T03:11:18Z</DateUtc></StartTime><FrequencyChanges><FrequencyChange><Frequency dt:dt=""r8"">10000000</Frequency><Timestamp dt:dt=""r8"">7541646162286</Timestamp><Current dt:dt=""r8"">0</Current><DateUtc dt:dt=""string"">2022-12-03T03:11:18Z</DateUtc></FrequencyChange></FrequencyChanges></Clock>\n",Wisconsin-1172-1,60.009,1.0.0.245,1,-313846870,3.0.3.80,3.0.3.80,12-03-2022,12/3/2022 3:11:19 AM,11:11:19,3.0.3.82,3,,,,3.0,1.0,2.0,BlockProc,List2,2,,,,,,,,,,,,,,,,,1.0,1.0,2.0,,,,,,,NumberProc,List3,,,,,,,,,1.0,Button1.png,Button2.png,Button3.png,Button4.png,Bluecircle4.png,,,,,,,{Button2},0.0,1.0,1.0,1.0,,,,0.0,TrialProc,NumberList,,,,,,,0.0,{Button2},10.0,33.0,285507.0,0.0,{Button4},989.0,number
Wisconsin,1172,1,"<?xml version=""1.0""?>\n<Clock xmlns:dt=""urn:schemas-microsoft-com:datatypes""><Description dt:dt=""string"">E-Prime Primary Realtime Clock</Description><StartTime><Timestamp dt:dt=""int"">0</Timestamp><DateUtc dt:dt=""string"">2022-12-03T03:11:18Z</DateUtc></StartTime><FrequencyChanges><FrequencyChange><Frequency dt:dt=""r8"">10000000</Frequency><Timestamp dt:dt=""r8"">7541646162286</Timestamp><Current dt:dt=""r8"">0</Current><DateUtc dt:dt=""string"">2022-12-03T03:11:18Z</DateUtc></FrequencyChange></FrequencyChanges></Clock>\n",Wisconsin-1172-1,60.009,1.0.0.245,1,-313846870,3.0.3.80,3.0.3.80,12-03-2022,12/3/2022 3:11:19 AM,11:11:19,3.0.3.82,3,,,,3.0,1.0,2.0,BlockProc,List2,2,,,,,,,,,,,,,,,,,1.0,1.0,2.0,,,,,,,NumberProc,List3,,,,,,,,,2.0,Button1.png,Button2.png,Button3.png,Button4.png,Greencross3.png,,,,,,,{Button3},0.0,5.0,1.0,2.0,,,,0.0,TrialProc,NumberList,,,,,,,1.0,{Button3},10.0,33.0,289073.0,0.0,{Button3},1735.0,number
Wisconsin,1172,1,"<?xml version=""1.0""?>\n<Clock xmlns:dt=""urn:schemas-microsoft-com:datatypes""><Description dt:dt=""string"">E-Prime Primary Realtime Clock</Description><StartTime><Timestamp dt:dt=""int"">0</Timestamp><DateUtc dt:dt=""string"">2022-12-03T03:11:18Z</DateUtc></StartTime><FrequencyChanges><FrequencyChange><Frequency dt:dt=""r8"">10000000</Frequency><Timestamp dt:dt=""r8"">7541646162286</Timestamp><Current dt:dt=""r8"">0</Current><DateUtc dt:dt=""string"">2022-12-03T03:11:18Z</DateUtc></FrequencyChange></FrequencyChanges></Clock>\n",Wisconsin-1172-1,60.009,1.0.0.245,1,-313846870,3.0.3.80,3.0.3.80,12-03-2022,12/3/2022 3:11:19 AM,11:11:19,3.0.3.82,3,,,,3.0,1.0,2.0,BlockProc,List2,2,,,,,,,,,,,,,,,,,1.0,1.0,2.0,,,,,,,NumberProc,List3,,,,,,,,,3.0,Button1.png,Button2.png,Button3.png,Button4.png,Redtriangle4.png,,,,,,,{Button2},0.0,8.0,1.0,3.0,,,,0.0,TrialProc,NumberList,,,,,,,1.0,{Button2},9.0,33.0,293389.0,0.0,{Button2},1291.0,number
Wisconsin,1172,1,"<?xml version=""1.0""?>\n<Clock xmlns:dt=""urn:schemas-microsoft-com:datatypes""><Description dt:dt=""string"">E-Prime Primary Realtime Clock</Description><StartTime><Timestamp dt:dt=""int"">0</Timestamp><DateUtc dt:dt=""string"">2022-12-03T03:11:18Z</DateUtc></StartTime><FrequencyChanges><FrequencyChange><Frequency dt:dt=""r8"">10000000</Frequency><Timestamp dt:dt=""r8"">7541646162286</Timestamp><Current dt:dt=""r8"">0</Current><DateUtc dt:dt=""string"">2022-12-03T03:11:18Z</DateUtc></FrequencyChange></FrequencyChanges></Clock>\n",Wisconsin-1172-1,60.009,1.0.0.245,1,-313846870,3.0.3.80,3.0.3.80,12-03-2022,12/3/2022 3:11:19 AM,11:11:19,3.0.3.82,3,,,,3.0,1.0,2.0,BlockProc,List2,2,,,,,,,,,,,,,,,,,1.0,1.0,2.0,,,,,,,NumberProc,List3,,,,,,,,,4.0,Button1.png,Button2.png,Button3.png,Button4.png,Yellowcross1.png,,,,,,,{Button4},0.0,9.0,1.0,4.0,,,,0.0,TrialProc,NumberList,,,,,,,0.0,{Button4},10.0,33.0,297254.0,0.0,{Button3},1162.0,number
Wisconsin,1172,1,"<?xml version=""1.0""?>\n<Clock xmlns:dt=""urn:schemas-microsoft-com:datatypes""><Description dt:dt=""string"">E-Prime Primary Realtime Clock</Description><StartTime><Timestamp dt:dt=""int"">0</Timestamp><DateUtc dt:dt=""string"">2022-12-03T03:11:18Z</DateUtc></StartTime><FrequencyChanges><FrequencyChange><Frequency dt:dt=""r8"">10000000</Frequency><Timestamp dt:dt=""r8"">7541646162286</Timestamp><Current dt:dt=""r8"">0</Current><DateUtc dt:dt=""string"">2022-12-03T03:11:18Z</DateUtc></FrequencyChange></FrequencyChanges></Clock>\n",Wisconsin-1172-1,60.009,1.0.0.245,1,-313846870,3.0.3.80,3.0.3.80,12-03-2022,12/3/2022 3:11:19 AM,11:11:19,3.0.3.82,3,,,,3.0,1.0,2.0,BlockProc,List2,2,,,,,,,,,,,,,,,,,1.0,1.0,2.0,,,,,,,NumberProc,List3,,,,,,,,,5.0,Button1.png,Button2.png,Button3.png,Button4.png,Redstar2.png,,,,,,,{Button1},0.0,7.0,1.0,5.0,,,,0.0,TrialProc,NumberList,,,,,,,0.0,{Button1},10.0,33.0,300987.0,0.0,{Button4},2493.0,number
Wisconsin,1172,1,"<?xml version=""1.0""?>\n<Clock xmlns:dt=""urn:schemas-microsoft-com:datatypes""><Description dt:dt=""string"">E-Prime Primary Realtime Clock</Description><StartTime><Timestamp dt:dt=""int"">0</Timestamp><DateUtc dt:dt=""string"">2022-12-03T03:11:18Z</DateUtc></StartTime><FrequencyChanges><FrequencyChange><Frequency dt:dt=""r8"">10000000</Frequency><Timestamp dt:dt=""r8"">7541646162286</Timestamp><Current dt:dt=""r8"">0</Current><DateUtc dt:dt=""string"">2022-12-03T03:11:18Z</DateUtc></FrequencyChange></FrequencyChanges></Clock>\n",Wisconsin-1172-1,60.009,1.0.0.245,1,-313846870,3.0.3.80,3.0.3.80,12-03-2022,12/3/2022 3:11:19 AM,11:11:19,3.0.3.82,3,,,,3.0,1.0,2.0,BlockProc,List2,2,,,,,,,,,,,,,,,,,1.0,1.0,2.0,,,,,,,NumberProc,List3,,,,,,,,,6.0,Button1.png,Button2.png,Button3.png,Button4.png,Yellowcross3.png,,,,,,,{Button3},0.0,10.0,1.0,6.0,,,,0.0,TrialProc,NumberList,,,,,,,0.0,{Button3},10.0,50.0,306069.0,0.0,{Button2},923.0,number
Wisconsin,1172,1,"<?xml version=""1.0""?>\n<Clock xmlns:dt=""urn:schemas-microsoft-com:datatypes""><Description dt:dt=""string"">E-Prime Primary Realtime Clock</Description><StartTime><Timestamp dt:dt=""int"">0</Timestamp><DateUtc dt:dt=""string"">2022-12-03T03:11:18Z</DateUtc></StartTime><FrequencyChanges><FrequencyChange><Frequency dt:dt=""r8"">10000000</Frequency><Timestamp dt:dt=""r8"">7541646162286</Timestamp><Current dt:dt=""r8"">0</Current><DateUtc dt:dt=""string"">2022-12-03T03:11:18Z</DateUtc></FrequencyChange></FrequencyChanges></Clock>\n",Wisconsin-1172-1,60.009,1.0.0.245,1,-313846870,3.0.3.80,3.0.3.80,12-03-2022,12/3/2022 3:11:19 AM,11:11:19,3.0.3.82,3,,,,3.0,1.0,2.0,BlockProc,List2,2,,,,,,,,,,,,,,,,,1.0,1.0,2.0,,,,,,,NumberProc,List3,,,,,,,,,7.0,Button1.png,Button2.png,Button3.png,Button4.png,Greencircle4.png,,,,,,,{Button2},0.0,4.0,1.0,7.0,,,,0.0,TrialProc,NumberList,,,,,,,1.0,{Button2},10.0,33.0,309568.0,0.0,{Button2},1968.0,number
Wisconsin,1172,1,"<?xml version=""1.0""?>\n<Clock xmlns:dt=""urn:schemas-microsoft-com:datatypes""><Description dt:dt=""string"">E-Prime Primary Realtime Clock</Description><StartTime><Timestamp dt:dt=""int"">0</Timestamp><DateUtc dt:dt=""string"">2022-12-03T03:11:18Z</DateUtc></StartTime><FrequencyChanges><FrequencyChange><Frequency dt:dt=""r8"">10000000</Frequency><Timestamp dt:dt=""r8"">7541646162286</Timestamp><Current dt:dt=""r8"">0</Current><DateUtc dt:dt=""string"">2022-12-03T03:11:18Z</DateUtc></FrequencyChange></FrequencyChanges></Clock>\n",Wisconsin-1172-1,60.009,1.0.0.245,1,-313846870,3.0.3.80,3.0.3.80,12-03-2022,12/3/2022 3:11:19 AM,11:11:19,3.0.3.82,3,,,,3.0,1.0,2.0,BlockProc,List2,2,,,,,,,,,,,,,,,,,1.0,1.0,2.0,,,,,,,NumberProc,List3,,,,,,,,,8.0,Button1.png,Button2.png,Button3.png,Button4.png,Redcircle4.png,,,,,,,{Button2},0.0,6.0,1.0,8.0,,,,0.0,TrialProc,NumberList,,,,,,,1.0,{Button2},10.0,33.0,314117.0,0.0,{Button2},1299.0,number
Wisconsin,1172,1,"<?xml version=""1.0""?>\n<Clock xmlns:dt=""urn:schemas-microsoft-com:datatypes""><Description dt:dt=""string"">E-Prime Primary Realtime Clock</Description><StartTime><Timestamp dt:dt=""int"">0</Timestamp><DateUtc dt:dt=""string"">2022-12-03T03:11:18Z</DateUtc></StartTime><FrequencyChanges><FrequencyChange><Frequency dt:dt=""r8"">10000000</Frequency><Timestamp dt:dt=""r8"">7541646162286</Timestamp><Current dt:dt=""r8"">0</Current><DateUtc dt:dt=""string"">2022-12-03T03:11:18Z</DateUtc></FrequencyChange></FrequencyChanges></Clock>\n",Wisconsin-1172-1,60.009,1.0.0.245,1,-313846870,3.0.3.80,3.0.3.80,12-03-2022,12/3/2022 3:11:19 AM,11:11:19,3.0.3.82,3,,,,3.0,1.0,2.0,BlockProc,List2,2,,,,,,,,,,,,,,,,,1.0,1.0,2.0,,,,,,,NumberProc,List3,,,,,,,,,9.0,Button1.png,Button2.png,Button3.png,Button4.png,Bluestar2.png,,,,,,,{Button1},0.0,2.0,1.0,9.0,,,,0.0,TrialProc,NumberList,,,,,,,1.0,{Button1},10.0,33.0,317999.0,0.0,{Button1},1537.0,number
Wisconsin,1172,1,"<?xml version=""1.0""?>\n<Clock xmlns:dt=""urn:schemas-microsoft-com:datatypes""><Description dt:dt=""string"">E-Prime Primary Realtime Clock</Description><StartTime><Timestamp dt:dt=""int"">0</Timestamp><DateUtc dt:dt=""string"">2022-12-03T03:11:18Z</DateUtc></StartTime><FrequencyChanges><FrequencyChange><Frequency dt:dt=""r8"">10000000</Frequency><Timestamp dt:dt=""r8"">7541646162286</Timestamp><Current dt:dt=""r8"">0</Current><DateUtc dt:dt=""string"">2022-12-03T03:11:18Z</DateUtc></FrequencyChange></FrequencyChanges></Clock>\n",Wisconsin-1172-1,60.009,1.0.0.245,1,-313846870,3.0.3.80,3.0.3.80,12-03-2022,12/3/2022 3:11:19 AM,11:11:19,3.0.3.82,3,,,,3.0,1.0,2.0,BlockProc,List2,2,,,,,,,,,,,,,,,,,1.0,1.0,2.0,,,,,,,NumberProc,List3,,,,,,,,,10.0,Button1.png,Button2.png,Button3.png,Button4.png,Bluetriangle1.png,,,,,,,{Button4},0.0,3.0,1.0,10.0,,,,0.0,TrialProc,NumberList,,,,,,,1.0,{Button4},10.0,33.0,322115.0,0.0,{Button4},1405.0,number
Wisconsin,1172,1,"<?xml version=""1.0""?>\n<Clock xmlns:dt=""urn:schemas-microsoft-com:datatypes""><Description dt:dt=""string"">E-Prime Primary Realtime Clock</Description><StartTime><Timestamp dt:dt=""int"">0</Timestamp><DateUtc dt:dt=""string"">2022-12-03T03:11:18Z</DateUtc></StartTime><FrequencyChanges><FrequencyChange><Frequency dt:dt=""r8"">10000000</Frequency><Timestamp dt:dt=""r8"">7541646162286</Timestamp><Current dt:dt=""r8"">0</Current><DateUtc dt:dt=""string"">2022-12-03T03:11:18Z</DateUtc></FrequencyChange></FrequencyChanges></Clock>\n",Wisconsin-1172-1,60.009,1.0.0.245,1,-313846870,3.0.3.80,3.0.3.80,12-03-2022,12/3/2022 3:11:19 AM,11:11:19,3.0.3.82,3,,,,2.0,1.0,3.0,BlockProc,List2,3,,,,,,,,,,,,,,,,,1.0,1.0,2.0,,,,,,,ShapeProc,List3,,,,,,,,,1.0,Button1.png,Button2.png,Button3.png,Button4.png,Yellowstar1.png,,,,,,,{Button4},0.0,,,,,,,0.0,TrialProc,ShapeList,9.0,1.0,1.0,,,,1.0,{Button4},10.0,33.0,326097.0,0.0,{Button4},1215.0,Shape
Wisconsin,1172,1,"<?xml version=""1.0""?>\n<Clock xmlns:dt=""urn:schemas-microsoft-com:datatypes""><Description dt:dt=""string"">E-Prime Primary Realtime Clock</Description><StartTime><Timestamp dt:dt=""int"">0</Timestamp><DateUtc dt:dt=""string"">2022-12-03T03:11:18Z</DateUtc></StartTime><FrequencyChanges><FrequencyChange><Frequency dt:dt=""r8"">10000000</Frequency><Timestamp dt:dt=""r8"">7541646162286</Timestamp><Current dt:dt=""r8"">0</Current><DateUtc dt:dt=""string"">2022-12-03T03:11:18Z</DateUtc></FrequencyChange></FrequencyChanges></Clock>\n",Wisconsin-1172-1,60.009,1.0.0.245,1,-313846870,3.0.3.80,3.0.3.80,12-03-2022,12/3/2022 3:11:19 AM,11:11:19,3.0.3.82,3,,,,2.0,1.0,3.0,BlockProc,List2,3,,,,,,,,,,,,,,,,,1.0,1.0,2.0,,,,,,,ShapeProc,List3,,,,,,,,,2.0,Button1.png,Button2.png,Button3.png,Button4.png,yellowcircle3.png,,,,,,,{Button1},0.0,,,,,,,0.0,TrialProc,ShapeList,8.0,1.0,2.0,,,,0.0,{Button1},10.0,33.0,329896.0,0.0,{Button3},1184.0,Shape
Wisconsin,1172,1,"<?xml version=""1.0""?>\n<Clock xmlns:dt=""urn:schemas-microsoft-com:datatypes""><Description dt:dt=""string"">E-Prime Primary Realtime Clock</Description><StartTime><Timestamp dt:dt=""int"">0</Timestamp><DateUtc dt:dt=""string"">2022-12-03T03:11:18Z</DateUtc></StartTime><FrequencyChanges><FrequencyChange><Frequency dt:dt=""r8"">10000000</Frequency><Timestamp dt:dt=""r8"">7541646162286</Timestamp><Current dt:dt=""r8"">0</Current><DateUtc dt:dt=""string"">2022-12-03T03:11:18Z</DateUtc></FrequencyChange></FrequencyChanges></Clock>\n",Wisconsin-1172-1,60.009,1.0.0.245,1,-313846870,3.0.3.80,3.0.3.80,12-03-2022,12/3/2022 3:11:19 AM,11:11:19,3.0.3.82,3,,,,2.0,1.0,3.0,BlockProc,List2,3,,,,,,,,,,,,,,,,,1.0,1.0,2.0,,,,,,,ShapeProc,List3,,,,,,,,,3.0,Button1.png,Button2.png,Button3.png,Button4.png,Bluecircle2.png,,,,,,,{Button1},0.0,,,,,,,0.0,TrialProc,ShapeList,1.0,1.0,3.0,,,,1.0,{Button1},2.0,33.0,333662.0,0.0,{Button1},1178.0,Shape
Wisconsin,1172,1,"<?xml version=""1.0""?>\n<Clock xmlns:dt=""urn:schemas-microsoft-com:datatypes""><Description dt:dt=""string"">E-Prime Primary Realtime Clock</Description><StartTime><Timestamp dt:dt=""int"">0</Timestamp><DateUtc dt:dt=""string"">2022-12-03T03:11:18Z</DateUtc></StartTime><FrequencyChanges><FrequencyChange><Frequency dt:dt=""r8"">10000000</Frequency><Timestamp dt:dt=""r8"">7541646162286</Timestamp><Current dt:dt=""r8"">0</Current><DateUtc dt:dt=""string"">2022-12-03T03:11:18Z</DateUtc></FrequencyChange></FrequencyChanges></Clock>\n",Wisconsin-1172-1,60.009,1.0.0.245,1,-313846870,3.0.3.80,3.0.3.80,12-03-2022,12/3/2022 3:11:19 AM,11:11:19,3.0.3.82,3,,,,2.0,1.0,3.0,BlockProc,List2,3,,,,,,,,,,,,,,,,,1.0,1.0,2.0,,,,,,,ShapeProc,List3,,,,,,,,,4.0,Button1.png,Button2.png,Button3.png,Button4.png,Redcross1.png,,,,,,,{Button3},0.0,,,,,,,0.0,TrialProc,ShapeList,5.0,1.0,4.0,,,,0.0,{Button3},9.0,33.0,337411.0,0.0,{Button4},1309.0,Shape
Wisconsin,1172,1,"<?xml version=""1.0""?>\n<Clock xmlns:dt=""urn:schemas-microsoft-com:datatypes""><Description dt:dt=""string"">E-Prime Primary Realtime Clock</Description><StartTime><Timestamp dt:dt=""int"">0</Timestamp><DateUtc dt:dt=""string"">2022-12-03T03:11:18Z</DateUtc></StartTime><FrequencyChanges><FrequencyChange><Frequency dt:dt=""r8"">10000000</Frequency><Timestamp dt:dt=""r8"">7541646162286</Timestamp><Current dt:dt=""r8"">0</Current><DateUtc dt:dt=""string"">2022-12-03T03:11:18Z</DateUtc></FrequencyChange></FrequencyChanges></Clock>\n",Wisconsin-1172-1,60.009,1.0.0.245,1,-313846870,3.0.3.80,3.0.3.80,12-03-2022,12/3/2022 3:11:19 AM,11:11:19,3.0.3.82,3,,,,2.0,1.0,3.0,BlockProc,List2,3,,,,,,,,,,,,,,,,,1.0,1.0,2.0,,,,,,,ShapeProc,List3,,,,,,,,,5.0,Button1.png,Button2.png,Button3.png,Button4.png,Greentriangle4.png,,,,,,,{Button2},0.0,,,,,,,0.0,TrialProc,ShapeList,4.0,1.0,5.0,,,,1.0,{Button2},10.0,49.0,341310.0,0.0,{Button2},1418.0,Shape
Wisconsin,1172,1,"<?xml version=""1.0""?>\n<Clock xmlns:dt=""urn:schemas-microsoft-com:datatypes""><Description dt:dt=""string"">E-Prime Primary Realtime Clock</Description><StartTime><Timestamp dt:dt=""int"">0</Timestamp><DateUtc dt:dt=""string"">2022-12-03T03:11:18Z</DateUtc></StartTime><FrequencyChanges><FrequencyChange><Frequency dt:dt=""r8"">10000000</Frequency><Timestamp dt:dt=""r8"">7541646162286</Timestamp><Current dt:dt=""r8"">0</Current><DateUtc dt:dt=""string"">2022-12-03T03:11:18Z</DateUtc></FrequencyChange></FrequencyChanges></Clock>\n",Wisconsin-1172-1,60.009,1.0.0.245,1,-313846870,3.0.3.80,3.0.3.80,12-03-2022,12/3/2022 3:11:19 AM,11:11:19,3.0.3.82,3,,,,2.0,1.0,3.0,BlockProc,List2,3,,,,,,,,,,,,,,,,,1.0,1.0,2.0,,,,,,,ShapeProc,List3,,,,,,,,,6.0,Button1.png,Button2.png,Button3.png,Button4.png,Greencross1.png,,,,,,,{Button3},0.0,,,,,,,0.0,TrialProc,ShapeList,3.0,1.0,6.0,,,,0.0,{Button3},10.0,33.0,345309.0,0.0,{Button4},1499.0,Shape
Wisconsin,1172,1,"<?xml version=""1.0""?>\n<Clock xmlns:dt=""urn:schemas-microsoft-com:datatypes""><Description dt:dt=""string"">E-Prime Primary Realtime Clock</Description><StartTime><Timestamp dt:dt=""int"">0</Timestamp><DateUtc dt:dt=""string"">2022-12-03T03:11:18Z</DateUtc></StartTime><FrequencyChanges><FrequencyChange><Frequency dt:dt=""r8"">10000000</Frequency><Timestamp dt:dt=""r8"">7541646162286</Timestamp><Current dt:dt=""r8"">0</Current><DateUtc dt:dt=""string"">2022-12-03T03:11:18Z</DateUtc></FrequencyChange></FrequencyChanges></Clock>\n",Wisconsin-1172-1,60.009,1.0.0.245,1,-313846870,3.0.3.80,3.0.3.80,12-03-2022,12/3/2022 3:11:19 AM,11:11:19,3.0.3.82,3,,,,2.0,1.0,3.0,BlockProc,List2,3,,,,,,,,,,,,,,,,,1.0,1.0,2.0,,,,,,,ShapeProc,List3,,,,,,,,,7.0,Button1.png,Button2.png,Button3.png,Button4.png,Yellowstar4.png,,,,,,,{Button4},0.0,,,,,,,0.0,TrialProc,ShapeList,10.0,1.0,7.0,,,,0.0,{Button4},1.0,33.0,349392.0,0.0,{Button2},1488.0,Shape
Wisconsin,1172,1,"<?xml version=""1.0""?>\n<Clock xmlns:dt=""urn:schemas-microsoft-com:datatypes""><Description dt:dt=""string"">E-Prime Primary Realtime Clock</Description><StartTime><Timestamp dt:dt=""int"">0</Timestamp><DateUtc dt:dt=""string"">2022-12-03T03:11:18Z</DateUtc></StartTime><FrequencyChanges><FrequencyChange><Frequency dt:dt=""r8"">10000000</Frequency><Timestamp dt:dt=""r8"">7541646162286</Timestamp><Current dt:dt=""r8"">0</Current><DateUtc dt:dt=""string"">2022-12-03T03:11:18Z</DateUtc></FrequencyChange></FrequencyChanges></Clock>\n",Wisconsin-1172-1,60.009,1.0.0.245,1,-313846870,3.0.3.80,3.0.3.80,12-03-2022,12/3/2022 3:11:19 AM,11:11:19,3.0.3.82,3,,,,2.0,1.0,3.0,BlockProc,List2,3,,,,,,,,,,,,,,,,,1.0,1.0,2.0,,,,,,,ShapeProc,List3,,,,,,,,,8.0,Button1.png,Button2.png,Button3.png,Button4.png,Redtriangle1.png,,,,,,,{Button2},0.0,,,,,,,0.0,TrialProc,ShapeList,7.0,1.0,8.0,,,,1.0,{Button2},10.0,33.0,353457.0,0.0,{Button2},1071.0,Shape
Wisconsin,1172,1,"<?xml version=""1.0""?>\n<Clock xmlns:dt=""urn:schemas-microsoft-com:datatypes""><Description dt:dt=""string"">E-Prime Primary Realtime Clock</Description><StartTime><Timestamp dt:dt=""int"">0</Timestamp><DateUtc dt:dt=""string"">2022-12-03T03:11:18Z</DateUtc></StartTime><FrequencyChanges><FrequencyChange><Frequency dt:dt=""r8"">10000000</Frequency><Timestamp dt:dt=""r8"">7541646162286</Timestamp><Current dt:dt=""r8"">0</Current><DateUtc dt:dt=""string"">2022-12-03T03:11:18Z</DateUtc></FrequencyChange></FrequencyChanges></Clock>\n",Wisconsin-1172-1,60.009,1.0.0.245,1,-313846870,3.0.3.80,3.0.3.80,12-03-2022,12/3/2022 3:11:19 AM,11:11:19,3.0.3.82,3,,,,2.0,1.0,3.0,BlockProc,List2,3,,,,,,,,,,,,,,,,,1.0,1.0,2.0,,,,,,,ShapeProc,List3,,,,,,,,,9.0,Button1.png,Button2.png,Button3.png,Button4.png,Bluecross4.png,,,,,,,{Button3},0.0,,,,,,,0.0,TrialProc,ShapeList,2.0,1.0,9.0,,,,1.0,{Button3},11.0,50.0,357123.0,0.0,{Button3},1045.0,Shape
Wisconsin,1172,1,"<?xml version=""1.0""?>\n<Clock xmlns:dt=""urn:schemas-microsoft-com:datatypes""><Description dt:dt=""string"">E-Prime Primary Realtime Clock</Description><StartTime><Timestamp dt:dt=""int"">0</Timestamp><DateUtc dt:dt=""string"">2022-12-03T03:11:18Z</DateUtc></StartTime><FrequencyChanges><FrequencyChange><Frequency dt:dt=""r8"">10000000</Frequency><Timestamp dt:dt=""r8"">7541646162286</Timestamp><Current dt:dt=""r8"">0</Current><DateUtc dt:dt=""string"">2022-12-03T03:11:18Z</DateUtc></FrequencyChange></FrequencyChanges></Clock>\n",Wisconsin-1172-1,60.009,1.0.0.245,1,-313846870,3.0.3.80,3.0.3.80,12-03-2022,12/3/2022 3:11:19 AM,11:11:19,3.0.3.82,3,,,,2.0,1.0,3.0,BlockProc,List2,3,,,,,,,,,,,,,,,,,1.0,1.0,2.0,,,,,,,ShapeProc,List3,,,,,,,,,10.0,Button1.png,Button2.png,Button3.png,Button4.png,Redcross4.png,,,,,,,{Button3},0.0,,,,,,,0.0,TrialProc,ShapeList,6.0,1.0,10.0,,,,0.0,{Button3},10.0,33.0,360739.0,0.0,{Button2},1141.0,Shape
