ExperimentName	Subject	Session	Clock.Information	DataFile.Basename	Display.RefreshRate	ExperimentVersion	Group	RandomSeed	RuntimeCapabilities	RuntimeVersion	RuntimeVersionExpected	SessionDate	SessionStartDateTimeUtc	SessionTime	StudioVersion	Block	List1	List1.Cycle	List1.Sample	List3	List3.Cycle	List3.Sample	Procedure[Block]	Running[Block]	Trial	CardIMG1[Trial]	CardIMG2[Trial]	CardIMG3[Trial]	CardIMG4[Trial]	CardStim[Trial]	Category	CorrectAnswer[Trial]	FeedbackDisplay2.ACC	FeedbackDisplay2.CRESP	FeedbackDisplay2.DurationError	FeedbackDisplay2.OnsetDelay	FeedbackDisplay2.OnsetTime	FeedbackDisplay2.OnsetToOnsetTime	FeedbackDisplay2.RESP	FeedbackDisplay2.RT	FeedbackDisplay2.RTTime	List2	List2.Cycle	List2.Sample	List4	List4.Cycle	List4.Sample	PracticeList	PracticeList.Cycle	PracticeList.Sample	Procedure[Trial]	Running[Trial]	Slide5.ACC	Slide5.CRESP	Slide5.DurationError	Slide5.OnsetDelay	Slide5.OnsetTime	Slide5.OnsetToOnsetTime	Slide5.RESP	Slide5.RT	SubTrial	CardIMG1[SubTrial]	CardIMG2[SubTrial]	CardIMG3[SubTrial]	CardIMG4[SubTrial]	CardStim[SubTrial]	ColorList	ColorList.Cycle	ColorList.Sample	ColorList2	ColorList2.Cycle	ColorList2.Sample	CorrectAnswer[SubTrial]	NonPerseverativeError	NumberList	NumberList.Cycle	NumberList.Sample	NumberList1	NumberList1.Cycle	NumberList1.Sample	PerseverativeError	Procedure[SubTrial]	Running[SubTrial]	ShapeList	ShapeList.Cycle	ShapeList.Sample	ShapeList1	ShapeList1.Cycle	ShapeList1.Sample	Stimulus.ACC	Stimulus.CRESP	Stimulus.DurationError	Stimulus.OnsetDelay	Stimulus.OnsetTime	Stimulus.OnsetToOnsetTime	Stimulus.RESP	Stimulus.RT	TrialType
Wisconsin	1173	3	<?xml version="1.0"?>\n<Clock xmlns:dt="urn:schemas-microsoft-com:datatypes"><Description dt:dt="string">E-Prime Primary Realtime Clock</Description><StartTime><Timestamp dt:dt="int">0</Timestamp><DateUtc dt:dt="string">2023-01-13T07:56:30Z</DateUtc></StartTime><FrequencyChanges><FrequencyChange><Frequency dt:dt="r8">2929746</Frequency><Timestamp dt:dt="r8">13274554612</Timestamp><Current dt:dt="r8">0</Current><DateUtc dt:dt="string">2023-01-13T07:56:30Z</DateUtc></FrequencyChange></FrequencyChanges></Clock>\n	Wisconsin-1173-3	59.954	1.0.0.556	1	390228266	Professional	2.0.10.356	2.0.10.356	01-13-2023	1/13/2023 7:56:31 AM	15:56:31	2.0.10.252	1	1	1	1				Practicebloc	List1	1	Button1.png	Button2.png	Button3.png	Button4.png	Greencircle3.png	顏色	z	0		0	28	58356	0		0	0							1	1	1	PracticeTrialProc	PracticeList	1	z	0	1	57055	0	z	1269																																						
Wisconsin	1173	3	<?xml version="1.0"?>\n<Clock xmlns:dt="urn:schemas-microsoft-com:datatypes"><Description dt:dt="string">E-Prime Primary Realtime Clock</Description><StartTime><Timestamp dt:dt="int">0</Timestamp><DateUtc dt:dt="string">2023-01-13T07:56:30Z</DateUtc></StartTime><FrequencyChanges><FrequencyChange><Frequency dt:dt="r8">2929746</Frequency><Timestamp dt:dt="r8">13274554612</Timestamp><Current dt:dt="r8">0</Current><DateUtc dt:dt="string">2023-01-13T07:56:30Z</DateUtc></FrequencyChange></FrequencyChanges></Clock>\n	Wisconsin-1173-3	59.954	1.0.0.556	1	390228266	Professional	2.0.10.356	2.0.10.356	01-13-2023	1/13/2023 7:56:31 AM	15:56:31	2.0.10.252	1	1	1	1				Practicebloc	List1	2	Button1.png	Button2.png	Button3.png	Button4.png	Redstar2.png	顏色	c	0		0	16	61942	0		0	0							2	1	2	PracticeTrialProc	PracticeList	1	c	0	1	60908	0	c	1016																																						
Wisconsin	1173	3	<?xml version="1.0"?>\n<Clock xmlns:dt="urn:schemas-microsoft-com:datatypes"><Description dt:dt="string">E-Prime Primary Realtime Clock</Description><StartTime><Timestamp dt:dt="int">0</Timestamp><DateUtc dt:dt="string">2023-01-13T07:56:30Z</DateUtc></StartTime><FrequencyChanges><FrequencyChange><Frequency dt:dt="r8">2929746</Frequency><Timestamp dt:dt="r8">13274554612</Timestamp><Current dt:dt="r8">0</Current><DateUtc dt:dt="string">2023-01-13T07:56:30Z</DateUtc></FrequencyChange></FrequencyChanges></Clock>\n	Wisconsin-1173-3	59.954	1.0.0.556	1	390228266	Professional	2.0.10.356	2.0.10.356	01-13-2023	1/13/2023 7:56:31 AM	15:56:31	2.0.10.252	1	1	1	1				Practicebloc	List1	3	Button1.png	Button2.png	Button3.png	Button4.png	Bluetriangle1.png	形狀	x	0		0	21	66028	0		0	0							3	1	3	PracticeTrialProc	PracticeList	1	x	0	1	64494	0	x	1510																																						
Wisconsin	1173	3	<?xml version="1.0"?>\n<Clock xmlns:dt="urn:schemas-microsoft-com:datatypes"><Description dt:dt="string">E-Prime Primary Realtime Clock</Description><StartTime><Timestamp dt:dt="int">0</Timestamp><DateUtc dt:dt="string">2023-01-13T07:56:30Z</DateUtc></StartTime><FrequencyChanges><FrequencyChange><Frequency dt:dt="r8">2929746</Frequency><Timestamp dt:dt="r8">13274554612</Timestamp><Current dt:dt="r8">0</Current><DateUtc dt:dt="string">2023-01-13T07:56:30Z</DateUtc></FrequencyChange></FrequencyChanges></Clock>\n	Wisconsin-1173-3	59.954	1.0.0.556	1	390228266	Professional	2.0.10.356	2.0.10.356	01-13-2023	1/13/2023 7:56:31 AM	15:56:31	2.0.10.252	1	1	1	1				Practicebloc	List1	4	Button1.png	Button2.png	Button3.png	Button4.png	greenstar2.png	形狀	v	0		0	26	69681	0		0	0							4	1	4	PracticeTrialProc	PracticeList	1	v	0	1	68580	0	v	1072																																						
Wisconsin	1173	3	<?xml version="1.0"?>\n<Clock xmlns:dt="urn:schemas-microsoft-com:datatypes"><Description dt:dt="string">E-Prime Primary Realtime Clock</Description><StartTime><Timestamp dt:dt="int">0</Timestamp><DateUtc dt:dt="string">2023-01-13T07:56:30Z</DateUtc></StartTime><FrequencyChanges><FrequencyChange><Frequency dt:dt="r8">2929746</Frequency><Timestamp dt:dt="r8">13274554612</Timestamp><Current dt:dt="r8">0</Current><DateUtc dt:dt="string">2023-01-13T07:56:30Z</DateUtc></FrequencyChange></FrequencyChanges></Clock>\n	Wisconsin-1173-3	59.954	1.0.0.556	1	390228266	Professional	2.0.10.356	2.0.10.356	01-13-2023	1/13/2023 7:56:31 AM	15:56:31	2.0.10.252	1	1	1	1				Practicebloc	List1	5	Button1.png	Button2.png	Button3.png	Button4.png	BlueCross4.png	數目	x	0		0	26	73150	0		0	0							5	1	5	PracticeTrialProc	PracticeList	0	x	0	1	72233	0	c	891																																						
Wisconsin	1173	3	<?xml version="1.0"?>\n<Clock xmlns:dt="urn:schemas-microsoft-com:datatypes"><Description dt:dt="string">E-Prime Primary Realtime Clock</Description><StartTime><Timestamp dt:dt="int">0</Timestamp><DateUtc dt:dt="string">2023-01-13T07:56:30Z</DateUtc></StartTime><FrequencyChanges><FrequencyChange><Frequency dt:dt="r8">2929746</Frequency><Timestamp dt:dt="r8">13274554612</Timestamp><Current dt:dt="r8">0</Current><DateUtc dt:dt="string">2023-01-13T07:56:30Z</DateUtc></FrequencyChange></FrequencyChanges></Clock>\n	Wisconsin-1173-3	59.954	1.0.0.556	1	390228266	Professional	2.0.10.356	2.0.10.356	01-13-2023	1/13/2023 7:56:31 AM	15:56:31	2.0.10.252	1	1	1	1				Practicebloc	List1	6	Button1.png	Button2.png	Button3.png	Button4.png	yellowcircle2.png	數目	z	0		0	26	76703	0		0	0							6	1	6	PracticeTrialProc	PracticeList	1	z	0	0	75702	0	z	974																																						
Wisconsin	1173	3	<?xml version="1.0"?>\n<Clock xmlns:dt="urn:schemas-microsoft-com:datatypes"><Description dt:dt="string">E-Prime Primary Realtime Clock</Description><StartTime><Timestamp dt:dt="int">0</Timestamp><DateUtc dt:dt="string">2023-01-13T07:56:30Z</DateUtc></StartTime><FrequencyChanges><FrequencyChange><Frequency dt:dt="r8">2929746</Frequency><Timestamp dt:dt="r8">13274554612</Timestamp><Current dt:dt="r8">0</Current><DateUtc dt:dt="string">2023-01-13T07:56:30Z</DateUtc></FrequencyChange></FrequencyChanges></Clock>\n	Wisconsin-1173-3	59.954	1.0.0.556	1	390228266	Professional	2.0.10.356	2.0.10.356	01-13-2023	1/13/2023 7:56:31 AM	15:56:31	2.0.10.252	2				2	1	1	BlockProc2	List3	1																				1	1	1				ColorProc2	List4									1	BUTTON1.png	BUTTON2.PNG	BUTTON3.png	BUTTON4.png	yellowcircle2.png				9	1	1	x	1							0	TrialProc	ColorList2							0	x	0	1	133980	0	z	1127	color
Wisconsin	1173	3	<?xml version="1.0"?>\n<Clock xmlns:dt="urn:schemas-microsoft-com:datatypes"><Description dt:dt="string">E-Prime Primary Realtime Clock</Description><StartTime><Timestamp dt:dt="int">0</Timestamp><DateUtc dt:dt="string">2023-01-13T07:56:30Z</DateUtc></StartTime><FrequencyChanges><FrequencyChange><Frequency dt:dt="r8">2929746</Frequency><Timestamp dt:dt="r8">13274554612</Timestamp><Current dt:dt="r8">0</Current><DateUtc dt:dt="string">2023-01-13T07:56:30Z</DateUtc></FrequencyChange></FrequencyChanges></Clock>\n	Wisconsin-1173-3	59.954	1.0.0.556	1	390228266	Professional	2.0.10.356	2.0.10.356	01-13-2023	1/13/2023 7:56:31 AM	15:56:31	2.0.10.252	2				2	1	1	BlockProc2	List3	1																				1	1	1				ColorProc2	List4									2	BUTTON1.png	BUTTON2.PNG	BUTTON3.png	BUTTON4.png	redstar4.png				8	1	2	c	0							0	TrialProc	ColorList2							1	c	0	1	137650	0	c	769	color
Wisconsin	1173	3	<?xml version="1.0"?>\n<Clock xmlns:dt="urn:schemas-microsoft-com:datatypes"><Description dt:dt="string">E-Prime Primary Realtime Clock</Description><StartTime><Timestamp dt:dt="int">0</Timestamp><DateUtc dt:dt="string">2023-01-13T07:56:30Z</DateUtc></StartTime><FrequencyChanges><FrequencyChange><Frequency dt:dt="r8">2929746</Frequency><Timestamp dt:dt="r8">13274554612</Timestamp><Current dt:dt="r8">0</Current><DateUtc dt:dt="string">2023-01-13T07:56:30Z</DateUtc></FrequencyChange></FrequencyChanges></Clock>\n	Wisconsin-1173-3	59.954	1.0.0.556	1	390228266	Professional	2.0.10.356	2.0.10.356	01-13-2023	1/13/2023 7:56:31 AM	15:56:31	2.0.10.252	2				2	1	1	BlockProc2	List3	1																				1	1	1				ColorProc2	List4									3	BUTTON1.png	BUTTON2.PNG	BUTTON3.png	BUTTON4.png	greentriangle2.png				6	1	3	z	0							0	TrialProc	ColorList2							1	z	0	1	140952	0	z	811	color
Wisconsin	1173	3	<?xml version="1.0"?>\n<Clock xmlns:dt="urn:schemas-microsoft-com:datatypes"><Description dt:dt="string">E-Prime Primary Realtime Clock</Description><StartTime><Timestamp dt:dt="int">0</Timestamp><DateUtc dt:dt="string">2023-01-13T07:56:30Z</DateUtc></StartTime><FrequencyChanges><FrequencyChange><Frequency dt:dt="r8">2929746</Frequency><Timestamp dt:dt="r8">13274554612</Timestamp><Current dt:dt="r8">0</Current><DateUtc dt:dt="string">2023-01-13T07:56:30Z</DateUtc></FrequencyChange></FrequencyChanges></Clock>\n	Wisconsin-1173-3	59.954	1.0.0.556	1	390228266	Professional	2.0.10.356	2.0.10.356	01-13-2023	1/13/2023 7:56:31 AM	15:56:31	2.0.10.252	2				2	1	1	BlockProc2	List3	1																				1	1	1				ColorProc2	List4									4	BUTTON1.png	BUTTON2.PNG	BUTTON3.png	BUTTON4.png	Greencircle1.png				3	1	4	z	0							0	TrialProc	ColorList2							1	z	0	1	144305	0	z	690	color
Wisconsin	1173	3	<?xml version="1.0"?>\n<Clock xmlns:dt="urn:schemas-microsoft-com:datatypes"><Description dt:dt="string">E-Prime Primary Realtime Clock</Description><StartTime><Timestamp dt:dt="int">0</Timestamp><DateUtc dt:dt="string">2023-01-13T07:56:30Z</DateUtc></StartTime><FrequencyChanges><FrequencyChange><Frequency dt:dt="r8">2929746</Frequency><Timestamp dt:dt="r8">13274554612</Timestamp><Current dt:dt="r8">0</Current><DateUtc dt:dt="string">2023-01-13T07:56:30Z</DateUtc></FrequencyChange></FrequencyChanges></Clock>\n	Wisconsin-1173-3	59.954	1.0.0.556	1	390228266	Professional	2.0.10.356	2.0.10.356	01-13-2023	1/13/2023 7:56:31 AM	15:56:31	2.0.10.252	2				2	1	1	BlockProc2	List3	1																				1	1	1				ColorProc2	List4									5	BUTTON1.png	BUTTON2.PNG	BUTTON3.png	BUTTON4.png	bluestar3.png				2	1	5	v	1							0	TrialProc	ColorList2							0	v	0	1	147524	0	c	751	color
Wisconsin	1173	3	<?xml version="1.0"?>\n<Clock xmlns:dt="urn:schemas-microsoft-com:datatypes"><Description dt:dt="string">E-Prime Primary Realtime Clock</Description><StartTime><Timestamp dt:dt="int">0</Timestamp><DateUtc dt:dt="string">2023-01-13T07:56:30Z</DateUtc></StartTime><FrequencyChanges><FrequencyChange><Frequency dt:dt="r8">2929746</Frequency><Timestamp dt:dt="r8">13274554612</Timestamp><Current dt:dt="r8">0</Current><DateUtc dt:dt="string">2023-01-13T07:56:30Z</DateUtc></FrequencyChange></FrequencyChanges></Clock>\n	Wisconsin-1173-3	59.954	1.0.0.556	1	390228266	Professional	2.0.10.356	2.0.10.356	01-13-2023	1/13/2023 7:56:31 AM	15:56:31	2.0.10.252	2				2	1	1	BlockProc2	List3	1																				1	1	1				ColorProc2	List4									6	BUTTON1.png	BUTTON2.PNG	BUTTON3.png	BUTTON4.png	greenstar4.png				5	1	6	z	0							0	TrialProc	ColorList2							1	z	0	1	150810	0	z	905	color
Wisconsin	1173	3	<?xml version="1.0"?>\n<Clock xmlns:dt="urn:schemas-microsoft-com:datatypes"><Description dt:dt="string">E-Prime Primary Realtime Clock</Description><StartTime><Timestamp dt:dt="int">0</Timestamp><DateUtc dt:dt="string">2023-01-13T07:56:30Z</DateUtc></StartTime><FrequencyChanges><FrequencyChange><Frequency dt:dt="r8">2929746</Frequency><Timestamp dt:dt="r8">13274554612</Timestamp><Current dt:dt="r8">0</Current><DateUtc dt:dt="string">2023-01-13T07:56:30Z</DateUtc></FrequencyChange></FrequencyChanges></Clock>\n	Wisconsin-1173-3	59.954	1.0.0.556	1	390228266	Professional	2.0.10.356	2.0.10.356	01-13-2023	1/13/2023 7:56:31 AM	15:56:31	2.0.10.252	2				2	1	1	BlockProc2	List3	1																				1	1	1				ColorProc2	List4									7	BUTTON1.png	BUTTON2.PNG	BUTTON3.png	BUTTON4.png	greencross4.png				4	1	7	z	1							0	TrialProc	ColorList2							0	z	0	1	154246	0	c	892	color
Wisconsin	1173	3	<?xml version="1.0"?>\n<Clock xmlns:dt="urn:schemas-microsoft-com:datatypes"><Description dt:dt="string">E-Prime Primary Realtime Clock</Description><StartTime><Timestamp dt:dt="int">0</Timestamp><DateUtc dt:dt="string">2023-01-13T07:56:30Z</DateUtc></StartTime><FrequencyChanges><FrequencyChange><Frequency dt:dt="r8">2929746</Frequency><Timestamp dt:dt="r8">13274554612</Timestamp><Current dt:dt="r8">0</Current><DateUtc dt:dt="string">2023-01-13T07:56:30Z</DateUtc></FrequencyChange></FrequencyChanges></Clock>\n	Wisconsin-1173-3	59.954	1.0.0.556	1	390228266	Professional	2.0.10.356	2.0.10.356	01-13-2023	1/13/2023 7:56:31 AM	15:56:31	2.0.10.252	2				2	1	1	BlockProc2	List3	1																				1	1	1				ColorProc2	List4									8	BUTTON1.png	BUTTON2.PNG	BUTTON3.png	BUTTON4.png	bluecross1.png				1	1	8	v	0							0	TrialProc	ColorList2							1	v	0	1	157682	0	v	784	color
Wisconsin	1173	3	<?xml version="1.0"?>\n<Clock xmlns:dt="urn:schemas-microsoft-com:datatypes"><Description dt:dt="string">E-Prime Primary Realtime Clock</Description><StartTime><Timestamp dt:dt="int">0</Timestamp><DateUtc dt:dt="string">2023-01-13T07:56:30Z</DateUtc></StartTime><FrequencyChanges><FrequencyChange><Frequency dt:dt="r8">2929746</Frequency><Timestamp dt:dt="r8">13274554612</Timestamp><Current dt:dt="r8">0</Current><DateUtc dt:dt="string">2023-01-13T07:56:30Z</DateUtc></FrequencyChange></FrequencyChanges></Clock>\n	Wisconsin-1173-3	59.954	1.0.0.556	1	390228266	Professional	2.0.10.356	2.0.10.356	01-13-2023	1/13/2023 7:56:31 AM	15:56:31	2.0.10.252	2				2	1	1	BlockProc2	List3	1																				1	1	1				ColorProc2	List4									9	BUTTON1.png	BUTTON2.PNG	BUTTON3.png	BUTTON4.png	Redcircle2.png				7	1	9	c	0							0	TrialProc	ColorList2							1	c	0	1	161001	0	c	841	color
Wisconsin	1173	3	<?xml version="1.0"?>\n<Clock xmlns:dt="urn:schemas-microsoft-com:datatypes"><Description dt:dt="string">E-Prime Primary Realtime Clock</Description><StartTime><Timestamp dt:dt="int">0</Timestamp><DateUtc dt:dt="string">2023-01-13T07:56:30Z</DateUtc></StartTime><FrequencyChanges><FrequencyChange><Frequency dt:dt="r8">2929746</Frequency><Timestamp dt:dt="r8">13274554612</Timestamp><Current dt:dt="r8">0</Current><DateUtc dt:dt="string">2023-01-13T07:56:30Z</DateUtc></FrequencyChange></FrequencyChanges></Clock>\n	Wisconsin-1173-3	59.954	1.0.0.556	1	390228266	Professional	2.0.10.356	2.0.10.356	01-13-2023	1/13/2023 7:56:31 AM	15:56:31	2.0.10.252	2				2	1	1	BlockProc2	List3	1																				1	1	1				ColorProc2	List4									10	BUTTON1.png	BUTTON2.PNG	BUTTON3.png	BUTTON4.png	yellowtriangle3.png				10	1	10	x	0							0	TrialProc	ColorList2							1	x	0	1	164370	0	x	2128	color
Wisconsin	1173	3	<?xml version="1.0"?>\n<Clock xmlns:dt="urn:schemas-microsoft-com:datatypes"><Description dt:dt="string">E-Prime Primary Realtime Clock</Description><StartTime><Timestamp dt:dt="int">0</Timestamp><DateUtc dt:dt="string">2023-01-13T07:56:30Z</DateUtc></StartTime><FrequencyChanges><FrequencyChange><Frequency dt:dt="r8">2929746</Frequency><Timestamp dt:dt="r8">13274554612</Timestamp><Current dt:dt="r8">0</Current><DateUtc dt:dt="string">2023-01-13T07:56:30Z</DateUtc></FrequencyChange></FrequencyChanges></Clock>\n	Wisconsin-1173-3	59.954	1.0.0.556	1	390228266	Professional	2.0.10.356	2.0.10.356	01-13-2023	1/13/2023 7:56:31 AM	15:56:31	2.0.10.252	2				2	1	1	BlockProc2	List3	2																				3	1	2				ShapeProc2	List4									1	Button1.png	Button2.png	Button3.png	Button4.png	yellowcross4.png							c	1							0	TrialProc	ShapeList1				8	1	1	0	c	0	0	169040	0	x	1042	Shape
Wisconsin	1173	3	<?xml version="1.0"?>\n<Clock xmlns:dt="urn:schemas-microsoft-com:datatypes"><Description dt:dt="string">E-Prime Primary Realtime Clock</Description><StartTime><Timestamp dt:dt="int">0</Timestamp><DateUtc dt:dt="string">2023-01-13T07:56:30Z</DateUtc></StartTime><FrequencyChanges><FrequencyChange><Frequency dt:dt="r8">2929746</Frequency><Timestamp dt:dt="r8">13274554612</Timestamp><Current dt:dt="r8">0</Current><DateUtc dt:dt="string">2023-01-13T07:56:30Z</DateUtc></FrequencyChange></FrequencyChanges></Clock>\n	Wisconsin-1173-3	59.954	1.0.0.556	1	390228266	Professional	2.0.10.356	2.0.10.356	01-13-2023	1/13/2023 7:56:31 AM	15:56:31	2.0.10.252	2				2	1	1	BlockProc2	List3	2																				3	1	2				ShapeProc2	List4									2	Button1.png	Button2.png	Button3.png	Button4.png	Redtriangle3.png							x	1							0	TrialProc	ShapeList1				7	1	2	0	x	1	0	172626	0	c	864	Shape
Wisconsin	1173	3	<?xml version="1.0"?>\n<Clock xmlns:dt="urn:schemas-microsoft-com:datatypes"><Description dt:dt="string">E-Prime Primary Realtime Clock</Description><StartTime><Timestamp dt:dt="int">0</Timestamp><DateUtc dt:dt="string">2023-01-13T07:56:30Z</DateUtc></StartTime><FrequencyChanges><FrequencyChange><Frequency dt:dt="r8">2929746</Frequency><Timestamp dt:dt="r8">13274554612</Timestamp><Current dt:dt="r8">0</Current><DateUtc dt:dt="string">2023-01-13T07:56:30Z</DateUtc></FrequencyChange></FrequencyChanges></Clock>\n	Wisconsin-1173-3	59.954	1.0.0.556	1	390228266	Professional	2.0.10.356	2.0.10.356	01-13-2023	1/13/2023 7:56:31 AM	15:56:31	2.0.10.252	2				2	1	1	BlockProc2	List3	2																				3	1	2				ShapeProc2	List4									3	Button1.png	Button2.png	Button3.png	Button4.png	Redcross2.png							c	1							0	TrialProc	ShapeList1				5	1	3	0	c	0	1	176029	0	z	1461	Shape
Wisconsin	1173	3	<?xml version="1.0"?>\n<Clock xmlns:dt="urn:schemas-microsoft-com:datatypes"><Description dt:dt="string">E-Prime Primary Realtime Clock</Description><StartTime><Timestamp dt:dt="int">0</Timestamp><DateUtc dt:dt="string">2023-01-13T07:56:30Z</DateUtc></StartTime><FrequencyChanges><FrequencyChange><Frequency dt:dt="r8">2929746</Frequency><Timestamp dt:dt="r8">13274554612</Timestamp><Current dt:dt="r8">0</Current><DateUtc dt:dt="string">2023-01-13T07:56:30Z</DateUtc></FrequencyChange></FrequencyChanges></Clock>\n	Wisconsin-1173-3	59.954	1.0.0.556	1	390228266	Professional	2.0.10.356	2.0.10.356	01-13-2023	1/13/2023 7:56:31 AM	15:56:31	2.0.10.252	2				2	1	1	BlockProc2	List3	2																				3	1	2				ShapeProc2	List4									4	Button1.png	Button2.png	Button3.png	Button4.png	Bluetriangle2.png							x	1							0	TrialProc	ShapeList1				2	1	4	0	x	0	1	180032	0	v	1394	Shape
Wisconsin	1173	3	<?xml version="1.0"?>\n<Clock xmlns:dt="urn:schemas-microsoft-com:datatypes"><Description dt:dt="string">E-Prime Primary Realtime Clock</Description><StartTime><Timestamp dt:dt="int">0</Timestamp><DateUtc dt:dt="string">2023-01-13T07:56:30Z</DateUtc></StartTime><FrequencyChanges><FrequencyChange><Frequency dt:dt="r8">2929746</Frequency><Timestamp dt:dt="r8">13274554612</Timestamp><Current dt:dt="r8">0</Current><DateUtc dt:dt="string">2023-01-13T07:56:30Z</DateUtc></FrequencyChange></FrequencyChanges></Clock>\n	Wisconsin-1173-3	59.954	1.0.0.556	1	390228266	Professional	2.0.10.356	2.0.10.356	01-13-2023	1/13/2023 7:56:31 AM	15:56:31	2.0.10.252	2				2	1	1	BlockProc2	List3	2																				3	1	2				ShapeProc2	List4									5	Button1.png	Button2.png	Button3.png	Button4.png	Yellowtriangle1.png							x	0							0	TrialProc	ShapeList1				10	1	5	1	x	1	0	183968	0	x	1042	Shape
Wisconsin	1173	3	<?xml version="1.0"?>\n<Clock xmlns:dt="urn:schemas-microsoft-com:datatypes"><Description dt:dt="string">E-Prime Primary Realtime Clock</Description><StartTime><Timestamp dt:dt="int">0</Timestamp><DateUtc dt:dt="string">2023-01-13T07:56:30Z</DateUtc></StartTime><FrequencyChanges><FrequencyChange><Frequency dt:dt="r8">2929746</Frequency><Timestamp dt:dt="r8">13274554612</Timestamp><Current dt:dt="r8">0</Current><DateUtc dt:dt="string">2023-01-13T07:56:30Z</DateUtc></FrequencyChange></FrequencyChanges></Clock>\n	Wisconsin-1173-3	59.954	1.0.0.556	1	390228266	Professional	2.0.10.356	2.0.10.356	01-13-2023	1/13/2023 7:56:31 AM	15:56:31	2.0.10.252	2				2	1	1	BlockProc2	List3	2																				3	1	2				ShapeProc2	List4									6	Button1.png	Button2.png	Button3.png	Button4.png	Yellowstar2.png							v	1							0	TrialProc	ShapeList1				9	1	6	0	v	1	0	187554	0	z	1104	Shape
Wisconsin	1173	3	<?xml version="1.0"?>\n<Clock xmlns:dt="urn:schemas-microsoft-com:datatypes"><Description dt:dt="string">E-Prime Primary Realtime Clock</Description><StartTime><Timestamp dt:dt="int">0</Timestamp><DateUtc dt:dt="string">2023-01-13T07:56:30Z</DateUtc></StartTime><FrequencyChanges><FrequencyChange><Frequency dt:dt="r8">2929746</Frequency><Timestamp dt:dt="r8">13274554612</Timestamp><Current dt:dt="r8">0</Current><DateUtc dt:dt="string">2023-01-13T07:56:30Z</DateUtc></FrequencyChange></FrequencyChanges></Clock>\n	Wisconsin-1173-3	59.954	1.0.0.556	1	390228266	Professional	2.0.10.356	2.0.10.356	01-13-2023	1/13/2023 7:56:31 AM	15:56:31	2.0.10.252	2				2	1	1	BlockProc2	List3	2																				3	1	2				ShapeProc2	List4									7	Button1.png	Button2.png	Button3.png	Button4.png	Bluecircle3.png							z	1							0	TrialProc	ShapeList1				1	1	7	0	z	0	1	191191	0	c	1051	Shape
Wisconsin	1173	3	<?xml version="1.0"?>\n<Clock xmlns:dt="urn:schemas-microsoft-com:datatypes"><Description dt:dt="string">E-Prime Primary Realtime Clock</Description><StartTime><Timestamp dt:dt="int">0</Timestamp><DateUtc dt:dt="string">2023-01-13T07:56:30Z</DateUtc></StartTime><FrequencyChanges><FrequencyChange><Frequency dt:dt="r8">2929746</Frequency><Timestamp dt:dt="r8">13274554612</Timestamp><Current dt:dt="r8">0</Current><DateUtc dt:dt="string">2023-01-13T07:56:30Z</DateUtc></FrequencyChange></FrequencyChanges></Clock>\n	Wisconsin-1173-3	59.954	1.0.0.556	1	390228266	Professional	2.0.10.356	2.0.10.356	01-13-2023	1/13/2023 7:56:31 AM	15:56:31	2.0.10.252	2				2	1	1	BlockProc2	List3	2																				3	1	2				ShapeProc2	List4									8	Button1.png	Button2.png	Button3.png	Button4.png	redcircle1.png							z	1							0	TrialProc	ShapeList1				4	1	8	0	z	0	1	194777	0	c	1593	Shape
Wisconsin	1173	3	<?xml version="1.0"?>\n<Clock xmlns:dt="urn:schemas-microsoft-com:datatypes"><Description dt:dt="string">E-Prime Primary Realtime Clock</Description><StartTime><Timestamp dt:dt="int">0</Timestamp><DateUtc dt:dt="string">2023-01-13T07:56:30Z</DateUtc></StartTime><FrequencyChanges><FrequencyChange><Frequency dt:dt="r8">2929746</Frequency><Timestamp dt:dt="r8">13274554612</Timestamp><Current dt:dt="r8">0</Current><DateUtc dt:dt="string">2023-01-13T07:56:30Z</DateUtc></FrequencyChange></FrequencyChanges></Clock>\n	Wisconsin-1173-3	59.954	1.0.0.556	1	390228266	Professional	2.0.10.356	2.0.10.356	01-13-2023	1/13/2023 7:56:31 AM	15:56:31	2.0.10.252	2				2	1	1	BlockProc2	List3	2																				3	1	2				ShapeProc2	List4									9	Button1.png	Button2.png	Button3.png	Button4.png	Redstar3.png							v	1							0	TrialProc	ShapeList1				6	1	9	0	v	1	0	198896	0	c	1106	Shape
Wisconsin	1173	3	<?xml version="1.0"?>\n<Clock xmlns:dt="urn:schemas-microsoft-com:datatypes"><Description dt:dt="string">E-Prime Primary Realtime Clock</Description><StartTime><Timestamp dt:dt="int">0</Timestamp><DateUtc dt:dt="string">2023-01-13T07:56:30Z</DateUtc></StartTime><FrequencyChanges><FrequencyChange><Frequency dt:dt="r8">2929746</Frequency><Timestamp dt:dt="r8">13274554612</Timestamp><Current dt:dt="r8">0</Current><DateUtc dt:dt="string">2023-01-13T07:56:30Z</DateUtc></FrequencyChange></FrequencyChanges></Clock>\n	Wisconsin-1173-3	59.954	1.0.0.556	1	390228266	Professional	2.0.10.356	2.0.10.356	01-13-2023	1/13/2023 7:56:31 AM	15:56:31	2.0.10.252	2				2	1	1	BlockProc2	List3	2																				3	1	2				ShapeProc2	List4									10	Button1.png	Button2.png	Button3.png	Button4.png	Greenstar3.png							v	1							0	TrialProc	ShapeList1				3	1	10	0	v	0	1	202533	0	z	1340	Shape
Wisconsin	1173	3	<?xml version="1.0"?>\n<Clock xmlns:dt="urn:schemas-microsoft-com:datatypes"><Description dt:dt="string">E-Prime Primary Realtime Clock</Description><StartTime><Timestamp dt:dt="int">0</Timestamp><DateUtc dt:dt="string">2023-01-13T07:56:30Z</DateUtc></StartTime><FrequencyChanges><FrequencyChange><Frequency dt:dt="r8">2929746</Frequency><Timestamp dt:dt="r8">13274554612</Timestamp><Current dt:dt="r8">0</Current><DateUtc dt:dt="string">2023-01-13T07:56:30Z</DateUtc></FrequencyChange></FrequencyChanges></Clock>\n	Wisconsin-1173-3	59.954	1.0.0.556	1	390228266	Professional	2.0.10.356	2.0.10.356	01-13-2023	1/13/2023 7:56:31 AM	15:56:31	2.0.10.252	2				2	1	1	BlockProc2	List3	3																				2	1	3				NumberProc2	List4									1	Button1.png	Button2.png	Button3.png	Button4.png	Bluetriangle4.png							x	1				3	1	1	0	TrialProc	NumberList1							0	x	0	1	206402	0	v	943	number
Wisconsin	1173	3	<?xml version="1.0"?>\n<Clock xmlns:dt="urn:schemas-microsoft-com:datatypes"><Description dt:dt="string">E-Prime Primary Realtime Clock</Description><StartTime><Timestamp dt:dt="int">0</Timestamp><DateUtc dt:dt="string">2023-01-13T07:56:30Z</DateUtc></StartTime><FrequencyChanges><FrequencyChange><Frequency dt:dt="r8">2929746</Frequency><Timestamp dt:dt="r8">13274554612</Timestamp><Current dt:dt="r8">0</Current><DateUtc dt:dt="string">2023-01-13T07:56:30Z</DateUtc></FrequencyChange></FrequencyChanges></Clock>\n	Wisconsin-1173-3	59.954	1.0.0.556	1	390228266	Professional	2.0.10.356	2.0.10.356	01-13-2023	1/13/2023 7:56:31 AM	15:56:31	2.0.10.252	2				2	1	1	BlockProc2	List3	3																				2	1	3				NumberProc2	List4									2	Button1.png	Button2.png	Button3.png	Button4.png	Bluecross3.png							c	0				1	1	2	0	TrialProc	NumberList1							1	c	0	1	209888	0	c	1169	number
Wisconsin	1173	3	<?xml version="1.0"?>\n<Clock xmlns:dt="urn:schemas-microsoft-com:datatypes"><Description dt:dt="string">E-Prime Primary Realtime Clock</Description><StartTime><Timestamp dt:dt="int">0</Timestamp><DateUtc dt:dt="string">2023-01-13T07:56:30Z</DateUtc></StartTime><FrequencyChanges><FrequencyChange><Frequency dt:dt="r8">2929746</Frequency><Timestamp dt:dt="r8">13274554612</Timestamp><Current dt:dt="r8">0</Current><DateUtc dt:dt="string">2023-01-13T07:56:30Z</DateUtc></FrequencyChange></FrequencyChanges></Clock>\n	Wisconsin-1173-3	59.954	1.0.0.556	1	390228266	Professional	2.0.10.356	2.0.10.356	01-13-2023	1/13/2023 7:56:31 AM	15:56:31	2.0.10.252	2				2	1	1	BlockProc2	List3	3																				2	1	3				NumberProc2	List4									3	Button1.png	Button2.png	Button3.png	Button4.png	yellowcircle4.png							x	0				8	1	3	0	TrialProc	NumberList1							1	x	0	1	213591	0	x	826	number
Wisconsin	1173	3	<?xml version="1.0"?>\n<Clock xmlns:dt="urn:schemas-microsoft-com:datatypes"><Description dt:dt="string">E-Prime Primary Realtime Clock</Description><StartTime><Timestamp dt:dt="int">0</Timestamp><DateUtc dt:dt="string">2023-01-13T07:56:30Z</DateUtc></StartTime><FrequencyChanges><FrequencyChange><Frequency dt:dt="r8">2929746</Frequency><Timestamp dt:dt="r8">13274554612</Timestamp><Current dt:dt="r8">0</Current><DateUtc dt:dt="string">2023-01-13T07:56:30Z</DateUtc></FrequencyChange></FrequencyChanges></Clock>\n	Wisconsin-1173-3	59.954	1.0.0.556	1	390228266	Professional	2.0.10.356	2.0.10.356	01-13-2023	1/13/2023 7:56:31 AM	15:56:31	2.0.10.252	2				2	1	1	BlockProc2	List3	3																				2	1	3				NumberProc2	List4									4	Button1.png	Button2.png	Button3.png	Button4.png	Bluestar4.png							x	1				2	1	4	0	TrialProc	NumberList1							0	x	0	1	216960	0	v	1009	number
Wisconsin	1173	3	<?xml version="1.0"?>\n<Clock xmlns:dt="urn:schemas-microsoft-com:datatypes"><Description dt:dt="string">E-Prime Primary Realtime Clock</Description><StartTime><Timestamp dt:dt="int">0</Timestamp><DateUtc dt:dt="string">2023-01-13T07:56:30Z</DateUtc></StartTime><FrequencyChanges><FrequencyChange><Frequency dt:dt="r8">2929746</Frequency><Timestamp dt:dt="r8">13274554612</Timestamp><Current dt:dt="r8">0</Current><DateUtc dt:dt="string">2023-01-13T07:56:30Z</DateUtc></FrequencyChange></FrequencyChanges></Clock>\n	Wisconsin-1173-3	59.954	1.0.0.556	1	390228266	Professional	2.0.10.356	2.0.10.356	01-13-2023	1/13/2023 7:56:31 AM	15:56:31	2.0.10.252	2				2	1	1	BlockProc2	List3	3																				2	1	3				NumberProc2	List4									5	Button1.png	Button2.png	Button3.png	Button4.png	Redstar1.png							v	1				6	1	5	0	TrialProc	NumberList1							0	v	0	1	220513	0	c	1696	number
Wisconsin	1173	3	<?xml version="1.0"?>\n<Clock xmlns:dt="urn:schemas-microsoft-com:datatypes"><Description dt:dt="string">E-Prime Primary Realtime Clock</Description><StartTime><Timestamp dt:dt="int">0</Timestamp><DateUtc dt:dt="string">2023-01-13T07:56:30Z</DateUtc></StartTime><FrequencyChanges><FrequencyChange><Frequency dt:dt="r8">2929746</Frequency><Timestamp dt:dt="r8">13274554612</Timestamp><Current dt:dt="r8">0</Current><DateUtc dt:dt="string">2023-01-13T07:56:30Z</DateUtc></FrequencyChange></FrequencyChanges></Clock>\n	Wisconsin-1173-3	59.954	1.0.0.556	1	390228266	Professional	2.0.10.356	2.0.10.356	01-13-2023	1/13/2023 7:56:31 AM	15:56:31	2.0.10.252	2				2	1	1	BlockProc2	List3	3																				2	1	3				NumberProc2	List4									6	Button1.png	Button2.png	Button3.png	Button4.png	Greenstar1.png							v	1				5	1	6	0	TrialProc	NumberList1							0	v	0	1	224750	0	z	1027	number
Wisconsin	1173	3	<?xml version="1.0"?>\n<Clock xmlns:dt="urn:schemas-microsoft-com:datatypes"><Description dt:dt="string">E-Prime Primary Realtime Clock</Description><StartTime><Timestamp dt:dt="int">0</Timestamp><DateUtc dt:dt="string">2023-01-13T07:56:30Z</DateUtc></StartTime><FrequencyChanges><FrequencyChange><Frequency dt:dt="r8">2929746</Frequency><Timestamp dt:dt="r8">13274554612</Timestamp><Current dt:dt="r8">0</Current><DateUtc dt:dt="string">2023-01-13T07:56:30Z</DateUtc></FrequencyChange></FrequencyChanges></Clock>\n	Wisconsin-1173-3	59.954	1.0.0.556	1	390228266	Professional	2.0.10.356	2.0.10.356	01-13-2023	1/13/2023 7:56:31 AM	15:56:31	2.0.10.252	2				2	1	1	BlockProc2	List3	3																				2	1	3				NumberProc2	List4									7	Button1.png	Button2.png	Button3.png	Button4.png	Greencross2.png							z	0				4	1	7	0	TrialProc	NumberList1							1	z	0	1	228319	0	z	1666	number
Wisconsin	1173	3	<?xml version="1.0"?>\n<Clock xmlns:dt="urn:schemas-microsoft-com:datatypes"><Description dt:dt="string">E-Prime Primary Realtime Clock</Description><StartTime><Timestamp dt:dt="int">0</Timestamp><DateUtc dt:dt="string">2023-01-13T07:56:30Z</DateUtc></StartTime><FrequencyChanges><FrequencyChange><Frequency dt:dt="r8">2929746</Frequency><Timestamp dt:dt="r8">13274554612</Timestamp><Current dt:dt="r8">0</Current><DateUtc dt:dt="string">2023-01-13T07:56:30Z</DateUtc></FrequencyChange></FrequencyChanges></Clock>\n	Wisconsin-1173-3	59.954	1.0.0.556	1	390228266	Professional	2.0.10.356	2.0.10.356	01-13-2023	1/13/2023 7:56:31 AM	15:56:31	2.0.10.252	2				2	1	1	BlockProc2	List3	3																				2	1	3				NumberProc2	List4									8	Button1.png	Button2.png	Button3.png	Button4.png	Yellowcross2.png							z	1				9	1	8	0	TrialProc	NumberList1							0	z	0	1	232522	0	x	1127	number
Wisconsin	1173	3	<?xml version="1.0"?>\n<Clock xmlns:dt="urn:schemas-microsoft-com:datatypes"><Description dt:dt="string">E-Prime Primary Realtime Clock</Description><StartTime><Timestamp dt:dt="int">0</Timestamp><DateUtc dt:dt="string">2023-01-13T07:56:30Z</DateUtc></StartTime><FrequencyChanges><FrequencyChange><Frequency dt:dt="r8">2929746</Frequency><Timestamp dt:dt="r8">13274554612</Timestamp><Current dt:dt="r8">0</Current><DateUtc dt:dt="string">2023-01-13T07:56:30Z</DateUtc></FrequencyChange></FrequencyChanges></Clock>\n	Wisconsin-1173-3	59.954	1.0.0.556	1	390228266	Professional	2.0.10.356	2.0.10.356	01-13-2023	1/13/2023 7:56:31 AM	15:56:31	2.0.10.252	2				2	1	1	BlockProc2	List3	3																				2	1	3				NumberProc2	List4									9	Button1.png	Button2.png	Button3.png	Button4.png	Yellowtriangle2.png							z	1				10	1	9	0	TrialProc	NumberList1							0	z	0	1	236192	0	x	785	number
Wisconsin	1173	3	<?xml version="1.0"?>\n<Clock xmlns:dt="urn:schemas-microsoft-com:datatypes"><Description dt:dt="string">E-Prime Primary Realtime Clock</Description><StartTime><Timestamp dt:dt="int">0</Timestamp><DateUtc dt:dt="string">2023-01-13T07:56:30Z</DateUtc></StartTime><FrequencyChanges><FrequencyChange><Frequency dt:dt="r8">2929746</Frequency><Timestamp dt:dt="r8">13274554612</Timestamp><Current dt:dt="r8">0</Current><DateUtc dt:dt="string">2023-01-13T07:56:30Z</DateUtc></FrequencyChange></FrequencyChanges></Clock>\n	Wisconsin-1173-3	59.954	1.0.0.556	1	390228266	Professional	2.0.10.356	2.0.10.356	01-13-2023	1/13/2023 7:56:31 AM	15:56:31	2.0.10.252	2				2	1	1	BlockProc2	List3	3																				2	1	3				NumberProc2	List4									10	Button1.png	Button2.png	Button3.png	Button4.png	Redtriangle2.png							z	1				7	1	10	0	TrialProc	NumberList1							0	z	0	1	239511	0	c	1066	number
Wisconsin	1173	3	<?xml version="1.0"?>\n<Clock xmlns:dt="urn:schemas-microsoft-com:datatypes"><Description dt:dt="string">E-Prime Primary Realtime Clock</Description><StartTime><Timestamp dt:dt="int">0</Timestamp><DateUtc dt:dt="string">2023-01-13T07:56:30Z</DateUtc></StartTime><FrequencyChanges><FrequencyChange><Frequency dt:dt="r8">2929746</Frequency><Timestamp dt:dt="r8">13274554612</Timestamp><Current dt:dt="r8">0</Current><DateUtc dt:dt="string">2023-01-13T07:56:30Z</DateUtc></FrequencyChange></FrequencyChanges></Clock>\n	Wisconsin-1173-3	59.954	1.0.0.556	1	390228266	Professional	2.0.10.356	2.0.10.356	01-13-2023	1/13/2023 7:56:31 AM	15:56:31	2.0.10.252	3				1	1	2	BlockProc	List3	1																	1	1	1							ColorProc	List2									1	BUTTON1.png	BUTTON2.PNG	BUTTON3.png	BUTTON4.png	bluecross2.png	2	1	1				v	1							0	TrialProc	ColorList							0	v	0	1	243114	0	c	1063	color
Wisconsin	1173	3	<?xml version="1.0"?>\n<Clock xmlns:dt="urn:schemas-microsoft-com:datatypes"><Description dt:dt="string">E-Prime Primary Realtime Clock</Description><StartTime><Timestamp dt:dt="int">0</Timestamp><DateUtc dt:dt="string">2023-01-13T07:56:30Z</DateUtc></StartTime><FrequencyChanges><FrequencyChange><Frequency dt:dt="r8">2929746</Frequency><Timestamp dt:dt="r8">13274554612</Timestamp><Current dt:dt="r8">0</Current><DateUtc dt:dt="string">2023-01-13T07:56:30Z</DateUtc></FrequencyChange></FrequencyChanges></Clock>\n	Wisconsin-1173-3	59.954	1.0.0.556	1	390228266	Professional	2.0.10.356	2.0.10.356	01-13-2023	1/13/2023 7:56:31 AM	15:56:31	2.0.10.252	3				1	1	2	BlockProc	List3	1																	1	1	1							ColorProc	List2									2	BUTTON1.png	BUTTON2.PNG	BUTTON3.png	BUTTON4.png	bluecircle1.png	1	1	2				v	0							0	TrialProc	ColorList							1	v	0	0	246716	0	v	965	color
Wisconsin	1173	3	<?xml version="1.0"?>\n<Clock xmlns:dt="urn:schemas-microsoft-com:datatypes"><Description dt:dt="string">E-Prime Primary Realtime Clock</Description><StartTime><Timestamp dt:dt="int">0</Timestamp><DateUtc dt:dt="string">2023-01-13T07:56:30Z</DateUtc></StartTime><FrequencyChanges><FrequencyChange><Frequency dt:dt="r8">2929746</Frequency><Timestamp dt:dt="r8">13274554612</Timestamp><Current dt:dt="r8">0</Current><DateUtc dt:dt="string">2023-01-13T07:56:30Z</DateUtc></FrequencyChange></FrequencyChanges></Clock>\n	Wisconsin-1173-3	59.954	1.0.0.556	1	390228266	Professional	2.0.10.356	2.0.10.356	01-13-2023	1/13/2023 7:56:31 AM	15:56:31	2.0.10.252	3				1	1	2	BlockProc	List3	1																	1	1	1							ColorProc	List2									3	BUTTON1.png	BUTTON2.PNG	BUTTON3.png	BUTTON4.png	greentriangle1.png	6	1	3				z	0							0	TrialProc	ColorList							1	z	0	1	250219	0	z	1174	color
Wisconsin	1173	3	<?xml version="1.0"?>\n<Clock xmlns:dt="urn:schemas-microsoft-com:datatypes"><Description dt:dt="string">E-Prime Primary Realtime Clock</Description><StartTime><Timestamp dt:dt="int">0</Timestamp><DateUtc dt:dt="string">2023-01-13T07:56:30Z</DateUtc></StartTime><FrequencyChanges><FrequencyChange><Frequency dt:dt="r8">2929746</Frequency><Timestamp dt:dt="r8">13274554612</Timestamp><Current dt:dt="r8">0</Current><DateUtc dt:dt="string">2023-01-13T07:56:30Z</DateUtc></FrequencyChange></FrequencyChanges></Clock>\n	Wisconsin-1173-3	59.954	1.0.0.556	1	390228266	Professional	2.0.10.356	2.0.10.356	01-13-2023	1/13/2023 7:56:31 AM	15:56:31	2.0.10.252	3				1	1	2	BlockProc	List3	1																	1	1	1							ColorProc	List2									4	BUTTON1.png	BUTTON2.PNG	BUTTON3.png	BUTTON4.png	redcircle3.png	8	1	4				c	0							0	TrialProc	ColorList							1	c	0	1	253922	0	c	862	color
Wisconsin	1173	3	<?xml version="1.0"?>\n<Clock xmlns:dt="urn:schemas-microsoft-com:datatypes"><Description dt:dt="string">E-Prime Primary Realtime Clock</Description><StartTime><Timestamp dt:dt="int">0</Timestamp><DateUtc dt:dt="string">2023-01-13T07:56:30Z</DateUtc></StartTime><FrequencyChanges><FrequencyChange><Frequency dt:dt="r8">2929746</Frequency><Timestamp dt:dt="r8">13274554612</Timestamp><Current dt:dt="r8">0</Current><DateUtc dt:dt="string">2023-01-13T07:56:30Z</DateUtc></FrequencyChange></FrequencyChanges></Clock>\n	Wisconsin-1173-3	59.954	1.0.0.556	1	390228266	Professional	2.0.10.356	2.0.10.356	01-13-2023	1/13/2023 7:56:31 AM	15:56:31	2.0.10.252	3				1	1	2	BlockProc	List3	1																	1	1	1							ColorProc	List2									5	BUTTON1.png	BUTTON2.PNG	BUTTON3.png	BUTTON4.png	yellowcircle1.png	9	1	5				x	1							0	TrialProc	ColorList							0	x	1	0	257324	0	z	1236	color
Wisconsin	1173	3	<?xml version="1.0"?>\n<Clock xmlns:dt="urn:schemas-microsoft-com:datatypes"><Description dt:dt="string">E-Prime Primary Realtime Clock</Description><StartTime><Timestamp dt:dt="int">0</Timestamp><DateUtc dt:dt="string">2023-01-13T07:56:30Z</DateUtc></StartTime><FrequencyChanges><FrequencyChange><Frequency dt:dt="r8">2929746</Frequency><Timestamp dt:dt="r8">13274554612</Timestamp><Current dt:dt="r8">0</Current><DateUtc dt:dt="string">2023-01-13T07:56:30Z</DateUtc></FrequencyChange></FrequencyChanges></Clock>\n	Wisconsin-1173-3	59.954	1.0.0.556	1	390228266	Professional	2.0.10.356	2.0.10.356	01-13-2023	1/13/2023 7:56:31 AM	15:56:31	2.0.10.252	3				1	1	2	BlockProc	List3	1																	1	1	1							ColorProc	List2									6	BUTTON1.png	BUTTON2.PNG	BUTTON3.png	BUTTON4.png	greenstar2.png	5	1	6				z	0							0	TrialProc	ColorList							1	z	0	1	261094	0	z	1034	color
Wisconsin	1173	3	<?xml version="1.0"?>\n<Clock xmlns:dt="urn:schemas-microsoft-com:datatypes"><Description dt:dt="string">E-Prime Primary Realtime Clock</Description><StartTime><Timestamp dt:dt="int">0</Timestamp><DateUtc dt:dt="string">2023-01-13T07:56:30Z</DateUtc></StartTime><FrequencyChanges><FrequencyChange><Frequency dt:dt="r8">2929746</Frequency><Timestamp dt:dt="r8">13274554612</Timestamp><Current dt:dt="r8">0</Current><DateUtc dt:dt="string">2023-01-13T07:56:30Z</DateUtc></FrequencyChange></FrequencyChanges></Clock>\n	Wisconsin-1173-3	59.954	1.0.0.556	1	390228266	Professional	2.0.10.356	2.0.10.356	01-13-2023	1/13/2023 7:56:31 AM	15:56:31	2.0.10.252	3				1	1	2	BlockProc	List3	1																	1	1	1							ColorProc	List2									7	BUTTON1.png	BUTTON2.PNG	BUTTON3.png	BUTTON4.png	greentriangle3.png	7	1	7				z	0							0	TrialProc	ColorList							1	z	0	0	264663	0	z	1273	color
Wisconsin	1173	3	<?xml version="1.0"?>\n<Clock xmlns:dt="urn:schemas-microsoft-com:datatypes"><Description dt:dt="string">E-Prime Primary Realtime Clock</Description><StartTime><Timestamp dt:dt="int">0</Timestamp><DateUtc dt:dt="string">2023-01-13T07:56:30Z</DateUtc></StartTime><FrequencyChanges><FrequencyChange><Frequency dt:dt="r8">2929746</Frequency><Timestamp dt:dt="r8">13274554612</Timestamp><Current dt:dt="r8">0</Current><DateUtc dt:dt="string">2023-01-13T07:56:30Z</DateUtc></FrequencyChange></FrequencyChanges></Clock>\n	Wisconsin-1173-3	59.954	1.0.0.556	1	390228266	Professional	2.0.10.356	2.0.10.356	01-13-2023	1/13/2023 7:56:31 AM	15:56:31	2.0.10.252	3				1	1	2	BlockProc	List3	1																	1	1	1							ColorProc	List2									8	BUTTON1.png	BUTTON2.PNG	BUTTON3.png	BUTTON4.png	bluetriangle3.png	3	1	8				v	0							0	TrialProc	ColorList							1	v	0	0	268466	0	v	1406	color
Wisconsin	1173	3	<?xml version="1.0"?>\n<Clock xmlns:dt="urn:schemas-microsoft-com:datatypes"><Description dt:dt="string">E-Prime Primary Realtime Clock</Description><StartTime><Timestamp dt:dt="int">0</Timestamp><DateUtc dt:dt="string">2023-01-13T07:56:30Z</DateUtc></StartTime><FrequencyChanges><FrequencyChange><Frequency dt:dt="r8">2929746</Frequency><Timestamp dt:dt="r8">13274554612</Timestamp><Current dt:dt="r8">0</Current><DateUtc dt:dt="string">2023-01-13T07:56:30Z</DateUtc></FrequencyChange></FrequencyChanges></Clock>\n	Wisconsin-1173-3	59.954	1.0.0.556	1	390228266	Professional	2.0.10.356	2.0.10.356	01-13-2023	1/13/2023 7:56:31 AM	15:56:31	2.0.10.252	3				1	1	2	BlockProc	List3	1																	1	1	1							ColorProc	List2									9	BUTTON1.png	BUTTON2.PNG	BUTTON3.png	BUTTON4.png	yellowstar3.png	10	1	9				x	0							0	TrialProc	ColorList							1	x	0	1	272403	0	x	685	color
Wisconsin	1173	3	<?xml version="1.0"?>\n<Clock xmlns:dt="urn:schemas-microsoft-com:datatypes"><Description dt:dt="string">E-Prime Primary Realtime Clock</Description><StartTime><Timestamp dt:dt="int">0</Timestamp><DateUtc dt:dt="string">2023-01-13T07:56:30Z</DateUtc></StartTime><FrequencyChanges><FrequencyChange><Frequency dt:dt="r8">2929746</Frequency><Timestamp dt:dt="r8">13274554612</Timestamp><Current dt:dt="r8">0</Current><DateUtc dt:dt="string">2023-01-13T07:56:30Z</DateUtc></FrequencyChange></FrequencyChanges></Clock>\n	Wisconsin-1173-3	59.954	1.0.0.556	1	390228266	Professional	2.0.10.356	2.0.10.356	01-13-2023	1/13/2023 7:56:31 AM	15:56:31	2.0.10.252	3				1	1	2	BlockProc	List3	1																	1	1	1							ColorProc	List2									10	BUTTON1.png	BUTTON2.PNG	BUTTON3.png	BUTTON4.png	greencircle3.png	4	1	10				z	0							0	TrialProc	ColorList							1	z	0	1	275622	0	z	1066	color
Wisconsin	1173	3	<?xml version="1.0"?>\n<Clock xmlns:dt="urn:schemas-microsoft-com:datatypes"><Description dt:dt="string">E-Prime Primary Realtime Clock</Description><StartTime><Timestamp dt:dt="int">0</Timestamp><DateUtc dt:dt="string">2023-01-13T07:56:30Z</DateUtc></StartTime><FrequencyChanges><FrequencyChange><Frequency dt:dt="r8">2929746</Frequency><Timestamp dt:dt="r8">13274554612</Timestamp><Current dt:dt="r8">0</Current><DateUtc dt:dt="string">2023-01-13T07:56:30Z</DateUtc></FrequencyChange></FrequencyChanges></Clock>\n	Wisconsin-1173-3	59.954	1.0.0.556	1	390228266	Professional	2.0.10.356	2.0.10.356	01-13-2023	1/13/2023 7:56:31 AM	15:56:31	2.0.10.252	3				1	1	2	BlockProc	List3	2																	2	1	2							NumberProc	List2									1	Button1.png	Button2.png	Button3.png	Button4.png	Yellowcross3.png							c	1	10	1	1				0	TrialProc	NumberList							0	c	1	0	279224	0	x	648	number
Wisconsin	1173	3	<?xml version="1.0"?>\n<Clock xmlns:dt="urn:schemas-microsoft-com:datatypes"><Description dt:dt="string">E-Prime Primary Realtime Clock</Description><StartTime><Timestamp dt:dt="int">0</Timestamp><DateUtc dt:dt="string">2023-01-13T07:56:30Z</DateUtc></StartTime><FrequencyChanges><FrequencyChange><Frequency dt:dt="r8">2929746</Frequency><Timestamp dt:dt="r8">13274554612</Timestamp><Current dt:dt="r8">0</Current><DateUtc dt:dt="string">2023-01-13T07:56:30Z</DateUtc></FrequencyChange></FrequencyChanges></Clock>\n	Wisconsin-1173-3	59.954	1.0.0.556	1	390228266	Professional	2.0.10.356	2.0.10.356	01-13-2023	1/13/2023 7:56:31 AM	15:56:31	2.0.10.252	3				1	1	2	BlockProc	List3	2																	2	1	2							NumberProc	List2									2	Button1.png	Button2.png	Button3.png	Button4.png	Yellowcross1.png							v	0	9	1	2				0	TrialProc	NumberList							1	v	0	0	282410	0	v	1030	number
Wisconsin	1173	3	<?xml version="1.0"?>\n<Clock xmlns:dt="urn:schemas-microsoft-com:datatypes"><Description dt:dt="string">E-Prime Primary Realtime Clock</Description><StartTime><Timestamp dt:dt="int">0</Timestamp><DateUtc dt:dt="string">2023-01-13T07:56:30Z</DateUtc></StartTime><FrequencyChanges><FrequencyChange><Frequency dt:dt="r8">2929746</Frequency><Timestamp dt:dt="r8">13274554612</Timestamp><Current dt:dt="r8">0</Current><DateUtc dt:dt="string">2023-01-13T07:56:30Z</DateUtc></FrequencyChange></FrequencyChanges></Clock>\n	Wisconsin-1173-3	59.954	1.0.0.556	1	390228266	Professional	2.0.10.356	2.0.10.356	01-13-2023	1/13/2023 7:56:31 AM	15:56:31	2.0.10.252	3				1	1	2	BlockProc	List3	2																	2	1	2							NumberProc	List2									3	Button1.png	Button2.png	Button3.png	Button4.png	Redtriangle4.png							x	1	8	1	3				0	TrialProc	NumberList							0	x	0	1	285980	0	c	612	number
Wisconsin	1173	3	<?xml version="1.0"?>\n<Clock xmlns:dt="urn:schemas-microsoft-com:datatypes"><Description dt:dt="string">E-Prime Primary Realtime Clock</Description><StartTime><Timestamp dt:dt="int">0</Timestamp><DateUtc dt:dt="string">2023-01-13T07:56:30Z</DateUtc></StartTime><FrequencyChanges><FrequencyChange><Frequency dt:dt="r8">2929746</Frequency><Timestamp dt:dt="r8">13274554612</Timestamp><Current dt:dt="r8">0</Current><DateUtc dt:dt="string">2023-01-13T07:56:30Z</DateUtc></FrequencyChange></FrequencyChanges></Clock>\n	Wisconsin-1173-3	59.954	1.0.0.556	1	390228266	Professional	2.0.10.356	2.0.10.356	01-13-2023	1/13/2023 7:56:31 AM	15:56:31	2.0.10.252	3				1	1	2	BlockProc	List3	2																	2	1	2							NumberProc	List2									4	Button1.png	Button2.png	Button3.png	Button4.png	Bluecircle4.png							x	1	1	1	4				0	TrialProc	NumberList							0	x	0	1	289132	0	v	1284	number
Wisconsin	1173	3	<?xml version="1.0"?>\n<Clock xmlns:dt="urn:schemas-microsoft-com:datatypes"><Description dt:dt="string">E-Prime Primary Realtime Clock</Description><StartTime><Timestamp dt:dt="int">0</Timestamp><DateUtc dt:dt="string">2023-01-13T07:56:30Z</DateUtc></StartTime><FrequencyChanges><FrequencyChange><Frequency dt:dt="r8">2929746</Frequency><Timestamp dt:dt="r8">13274554612</Timestamp><Current dt:dt="r8">0</Current><DateUtc dt:dt="string">2023-01-13T07:56:30Z</DateUtc></FrequencyChange></FrequencyChanges></Clock>\n	Wisconsin-1173-3	59.954	1.0.0.556	1	390228266	Professional	2.0.10.356	2.0.10.356	01-13-2023	1/13/2023 7:56:31 AM	15:56:31	2.0.10.252	3				1	1	2	BlockProc	List3	2																	2	1	2							NumberProc	List2									5	Button1.png	Button2.png	Button3.png	Button4.png	Bluestar2.png							z	0	2	1	5				0	TrialProc	NumberList							1	z	0	1	292952	0	z	1512	number
Wisconsin	1173	3	<?xml version="1.0"?>\n<Clock xmlns:dt="urn:schemas-microsoft-com:datatypes"><Description dt:dt="string">E-Prime Primary Realtime Clock</Description><StartTime><Timestamp dt:dt="int">0</Timestamp><DateUtc dt:dt="string">2023-01-13T07:56:30Z</DateUtc></StartTime><FrequencyChanges><FrequencyChange><Frequency dt:dt="r8">2929746</Frequency><Timestamp dt:dt="r8">13274554612</Timestamp><Current dt:dt="r8">0</Current><DateUtc dt:dt="string">2023-01-13T07:56:30Z</DateUtc></FrequencyChange></FrequencyChanges></Clock>\n	Wisconsin-1173-3	59.954	1.0.0.556	1	390228266	Professional	2.0.10.356	2.0.10.356	01-13-2023	1/13/2023 7:56:31 AM	15:56:31	2.0.10.252	3				1	1	2	BlockProc	List3	2																	2	1	2							NumberProc	List2									6	Button1.png	Button2.png	Button3.png	Button4.png	Redstar2.png							z	1	7	1	6				0	TrialProc	NumberList							0	z	0	1	297005	0	c	819	number
Wisconsin	1173	3	<?xml version="1.0"?>\n<Clock xmlns:dt="urn:schemas-microsoft-com:datatypes"><Description dt:dt="string">E-Prime Primary Realtime Clock</Description><StartTime><Timestamp dt:dt="int">0</Timestamp><DateUtc dt:dt="string">2023-01-13T07:56:30Z</DateUtc></StartTime><FrequencyChanges><FrequencyChange><Frequency dt:dt="r8">2929746</Frequency><Timestamp dt:dt="r8">13274554612</Timestamp><Current dt:dt="r8">0</Current><DateUtc dt:dt="string">2023-01-13T07:56:30Z</DateUtc></FrequencyChange></FrequencyChanges></Clock>\n	Wisconsin-1173-3	59.954	1.0.0.556	1	390228266	Professional	2.0.10.356	2.0.10.356	01-13-2023	1/13/2023 7:56:31 AM	15:56:31	2.0.10.252	3				1	1	2	BlockProc	List3	2																	2	1	2							NumberProc	List2									7	Button1.png	Button2.png	Button3.png	Button4.png	Redcircle4.png							x	1	6	1	7				0	TrialProc	NumberList							0	x	0	0	300357	0	c	843	number
Wisconsin	1173	3	<?xml version="1.0"?>\n<Clock xmlns:dt="urn:schemas-microsoft-com:datatypes"><Description dt:dt="string">E-Prime Primary Realtime Clock</Description><StartTime><Timestamp dt:dt="int">0</Timestamp><DateUtc dt:dt="string">2023-01-13T07:56:30Z</DateUtc></StartTime><FrequencyChanges><FrequencyChange><Frequency dt:dt="r8">2929746</Frequency><Timestamp dt:dt="r8">13274554612</Timestamp><Current dt:dt="r8">0</Current><DateUtc dt:dt="string">2023-01-13T07:56:30Z</DateUtc></FrequencyChange></FrequencyChanges></Clock>\n	Wisconsin-1173-3	59.954	1.0.0.556	1	390228266	Professional	2.0.10.356	2.0.10.356	01-13-2023	1/13/2023 7:56:31 AM	15:56:31	2.0.10.252	3				1	1	2	BlockProc	List3	2																	2	1	2							NumberProc	List2									8	Button1.png	Button2.png	Button3.png	Button4.png	Greencircle4.png							x	1	4	1	8				0	TrialProc	NumberList							0	x	0	1	303727	0	z	864	number
Wisconsin	1173	3	<?xml version="1.0"?>\n<Clock xmlns:dt="urn:schemas-microsoft-com:datatypes"><Description dt:dt="string">E-Prime Primary Realtime Clock</Description><StartTime><Timestamp dt:dt="int">0</Timestamp><DateUtc dt:dt="string">2023-01-13T07:56:30Z</DateUtc></StartTime><FrequencyChanges><FrequencyChange><Frequency dt:dt="r8">2929746</Frequency><Timestamp dt:dt="r8">13274554612</Timestamp><Current dt:dt="r8">0</Current><DateUtc dt:dt="string">2023-01-13T07:56:30Z</DateUtc></FrequencyChange></FrequencyChanges></Clock>\n	Wisconsin-1173-3	59.954	1.0.0.556	1	390228266	Professional	2.0.10.356	2.0.10.356	01-13-2023	1/13/2023 7:56:31 AM	15:56:31	2.0.10.252	3				1	1	2	BlockProc	List3	2																	2	1	2							NumberProc	List2									9	Button1.png	Button2.png	Button3.png	Button4.png	Greencross3.png							c	1	5	1	9				0	TrialProc	NumberList							0	c	0	1	307129	0	x	822	number
Wisconsin	1173	3	<?xml version="1.0"?>\n<Clock xmlns:dt="urn:schemas-microsoft-com:datatypes"><Description dt:dt="string">E-Prime Primary Realtime Clock</Description><StartTime><Timestamp dt:dt="int">0</Timestamp><DateUtc dt:dt="string">2023-01-13T07:56:30Z</DateUtc></StartTime><FrequencyChanges><FrequencyChange><Frequency dt:dt="r8">2929746</Frequency><Timestamp dt:dt="r8">13274554612</Timestamp><Current dt:dt="r8">0</Current><DateUtc dt:dt="string">2023-01-13T07:56:30Z</DateUtc></FrequencyChange></FrequencyChanges></Clock>\n	Wisconsin-1173-3	59.954	1.0.0.556	1	390228266	Professional	2.0.10.356	2.0.10.356	01-13-2023	1/13/2023 7:56:31 AM	15:56:31	2.0.10.252	3				1	1	2	BlockProc	List3	2																	2	1	2							NumberProc	List2									10	Button1.png	Button2.png	Button3.png	Button4.png	Bluetriangle1.png							v	0	3	1	10				0	TrialProc	NumberList							1	v	0	1	310482	0	v	1037	number
Wisconsin	1173	3	<?xml version="1.0"?>\n<Clock xmlns:dt="urn:schemas-microsoft-com:datatypes"><Description dt:dt="string">E-Prime Primary Realtime Clock</Description><StartTime><Timestamp dt:dt="int">0</Timestamp><DateUtc dt:dt="string">2023-01-13T07:56:30Z</DateUtc></StartTime><FrequencyChanges><FrequencyChange><Frequency dt:dt="r8">2929746</Frequency><Timestamp dt:dt="r8">13274554612</Timestamp><Current dt:dt="r8">0</Current><DateUtc dt:dt="string">2023-01-13T07:56:30Z</DateUtc></FrequencyChange></FrequencyChanges></Clock>\n	Wisconsin-1173-3	59.954	1.0.0.556	1	390228266	Professional	2.0.10.356	2.0.10.356	01-13-2023	1/13/2023 7:56:31 AM	15:56:31	2.0.10.252	3				1	1	2	BlockProc	List3	3																	3	1	3							ShapeProc	List2									1	Button1.png	Button2.png	Button3.png	Button4.png	Redcross4.png							c	0							0	TrialProc	ShapeList	6	1	1				1	c	0	1	314051	0	c	796	Shape
Wisconsin	1173	3	<?xml version="1.0"?>\n<Clock xmlns:dt="urn:schemas-microsoft-com:datatypes"><Description dt:dt="string">E-Prime Primary Realtime Clock</Description><StartTime><Timestamp dt:dt="int">0</Timestamp><DateUtc dt:dt="string">2023-01-13T07:56:30Z</DateUtc></StartTime><FrequencyChanges><FrequencyChange><Frequency dt:dt="r8">2929746</Frequency><Timestamp dt:dt="r8">13274554612</Timestamp><Current dt:dt="r8">0</Current><DateUtc dt:dt="string">2023-01-13T07:56:30Z</DateUtc></FrequencyChange></FrequencyChanges></Clock>\n	Wisconsin-1173-3	59.954	1.0.0.556	1	390228266	Professional	2.0.10.356	2.0.10.356	01-13-2023	1/13/2023 7:56:31 AM	15:56:31	2.0.10.252	3				1	1	2	BlockProc	List3	3																	3	1	3							ShapeProc	List2									2	Button1.png	Button2.png	Button3.png	Button4.png	Greentriangle4.png							x	0							0	TrialProc	ShapeList	4	1	2				1	x	0	1	317387	0	x	1204	Shape
Wisconsin	1173	3	<?xml version="1.0"?>\n<Clock xmlns:dt="urn:schemas-microsoft-com:datatypes"><Description dt:dt="string">E-Prime Primary Realtime Clock</Description><StartTime><Timestamp dt:dt="int">0</Timestamp><DateUtc dt:dt="string">2023-01-13T07:56:30Z</DateUtc></StartTime><FrequencyChanges><FrequencyChange><Frequency dt:dt="r8">2929746</Frequency><Timestamp dt:dt="r8">13274554612</Timestamp><Current dt:dt="r8">0</Current><DateUtc dt:dt="string">2023-01-13T07:56:30Z</DateUtc></FrequencyChange></FrequencyChanges></Clock>\n	Wisconsin-1173-3	59.954	1.0.0.556	1	390228266	Professional	2.0.10.356	2.0.10.356	01-13-2023	1/13/2023 7:56:31 AM	15:56:31	2.0.10.252	3				1	1	2	BlockProc	List3	3																	3	1	3							ShapeProc	List2									3	Button1.png	Button2.png	Button3.png	Button4.png	Greencross1.png							c	1							0	TrialProc	ShapeList	3	1	3				0	c	0	1	321123	0	v	1740	Shape
Wisconsin	1173	3	<?xml version="1.0"?>\n<Clock xmlns:dt="urn:schemas-microsoft-com:datatypes"><Description dt:dt="string">E-Prime Primary Realtime Clock</Description><StartTime><Timestamp dt:dt="int">0</Timestamp><DateUtc dt:dt="string">2023-01-13T07:56:30Z</DateUtc></StartTime><FrequencyChanges><FrequencyChange><Frequency dt:dt="r8">2929746</Frequency><Timestamp dt:dt="r8">13274554612</Timestamp><Current dt:dt="r8">0</Current><DateUtc dt:dt="string">2023-01-13T07:56:30Z</DateUtc></FrequencyChange></FrequencyChanges></Clock>\n	Wisconsin-1173-3	59.954	1.0.0.556	1	390228266	Professional	2.0.10.356	2.0.10.356	01-13-2023	1/13/2023 7:56:31 AM	15:56:31	2.0.10.252	3				1	1	2	BlockProc	List3	3																	3	1	3							ShapeProc	List2									4	Button1.png	Button2.png	Button3.png	Button4.png	Yellowstar4.png							v	1							0	TrialProc	ShapeList	10	1	4				0	v	0	1	325393	0	x	686	Shape
Wisconsin	1173	3	<?xml version="1.0"?>\n<Clock xmlns:dt="urn:schemas-microsoft-com:datatypes"><Description dt:dt="string">E-Prime Primary Realtime Clock</Description><StartTime><Timestamp dt:dt="int">0</Timestamp><DateUtc dt:dt="string">2023-01-13T07:56:30Z</DateUtc></StartTime><FrequencyChanges><FrequencyChange><Frequency dt:dt="r8">2929746</Frequency><Timestamp dt:dt="r8">13274554612</Timestamp><Current dt:dt="r8">0</Current><DateUtc dt:dt="string">2023-01-13T07:56:30Z</DateUtc></FrequencyChange></FrequencyChanges></Clock>\n	Wisconsin-1173-3	59.954	1.0.0.556	1	390228266	Professional	2.0.10.356	2.0.10.356	01-13-2023	1/13/2023 7:56:31 AM	15:56:31	2.0.10.252	3				1	1	2	BlockProc	List3	3																	3	1	3							ShapeProc	List2									5	Button1.png	Button2.png	Button3.png	Button4.png	Bluecircle2.png							z	0							0	TrialProc	ShapeList	1	1	5				1	z	0	1	328612	0	z	1467	Shape
Wisconsin	1173	3	<?xml version="1.0"?>\n<Clock xmlns:dt="urn:schemas-microsoft-com:datatypes"><Description dt:dt="string">E-Prime Primary Realtime Clock</Description><StartTime><Timestamp dt:dt="int">0</Timestamp><DateUtc dt:dt="string">2023-01-13T07:56:30Z</DateUtc></StartTime><FrequencyChanges><FrequencyChange><Frequency dt:dt="r8">2929746</Frequency><Timestamp dt:dt="r8">13274554612</Timestamp><Current dt:dt="r8">0</Current><DateUtc dt:dt="string">2023-01-13T07:56:30Z</DateUtc></FrequencyChange></FrequencyChanges></Clock>\n	Wisconsin-1173-3	59.954	1.0.0.556	1	390228266	Professional	2.0.10.356	2.0.10.356	01-13-2023	1/13/2023 7:56:31 AM	15:56:31	2.0.10.252	3				1	1	2	BlockProc	List3	3																	3	1	3							ShapeProc	List2									6	Button1.png	Button2.png	Button3.png	Button4.png	Yellowstar1.png							v	1							0	TrialProc	ShapeList	9	1	6				0	v	0	0	332615	0	x	1080	Shape
Wisconsin	1173	3	<?xml version="1.0"?>\n<Clock xmlns:dt="urn:schemas-microsoft-com:datatypes"><Description dt:dt="string">E-Prime Primary Realtime Clock</Description><StartTime><Timestamp dt:dt="int">0</Timestamp><DateUtc dt:dt="string">2023-01-13T07:56:30Z</DateUtc></StartTime><FrequencyChanges><FrequencyChange><Frequency dt:dt="r8">2929746</Frequency><Timestamp dt:dt="r8">13274554612</Timestamp><Current dt:dt="r8">0</Current><DateUtc dt:dt="string">2023-01-13T07:56:30Z</DateUtc></FrequencyChange></FrequencyChanges></Clock>\n	Wisconsin-1173-3	59.954	1.0.0.556	1	390228266	Professional	2.0.10.356	2.0.10.356	01-13-2023	1/13/2023 7:56:31 AM	15:56:31	2.0.10.252	3				1	1	2	BlockProc	List3	3																	3	1	3							ShapeProc	List2									7	Button1.png	Button2.png	Button3.png	Button4.png	yellowcircle3.png							z	1							0	TrialProc	ShapeList	8	1	7				0	z	0	1	336235	0	c	1300	Shape
Wisconsin	1173	3	<?xml version="1.0"?>\n<Clock xmlns:dt="urn:schemas-microsoft-com:datatypes"><Description dt:dt="string">E-Prime Primary Realtime Clock</Description><StartTime><Timestamp dt:dt="int">0</Timestamp><DateUtc dt:dt="string">2023-01-13T07:56:30Z</DateUtc></StartTime><FrequencyChanges><FrequencyChange><Frequency dt:dt="r8">2929746</Frequency><Timestamp dt:dt="r8">13274554612</Timestamp><Current dt:dt="r8">0</Current><DateUtc dt:dt="string">2023-01-13T07:56:30Z</DateUtc></FrequencyChange></FrequencyChanges></Clock>\n	Wisconsin-1173-3	59.954	1.0.0.556	1	390228266	Professional	2.0.10.356	2.0.10.356	01-13-2023	1/13/2023 7:56:31 AM	15:56:31	2.0.10.252	3				1	1	2	BlockProc	List3	3																	3	1	3							ShapeProc	List2									8	Button1.png	Button2.png	Button3.png	Button4.png	Redcross1.png							c	1							0	TrialProc	ShapeList	5	1	8				0	c	0	1	340071	0	v	1400	Shape
Wisconsin	1173	3	<?xml version="1.0"?>\n<Clock xmlns:dt="urn:schemas-microsoft-com:datatypes"><Description dt:dt="string">E-Prime Primary Realtime Clock</Description><StartTime><Timestamp dt:dt="int">0</Timestamp><DateUtc dt:dt="string">2023-01-13T07:56:30Z</DateUtc></StartTime><FrequencyChanges><FrequencyChange><Frequency dt:dt="r8">2929746</Frequency><Timestamp dt:dt="r8">13274554612</Timestamp><Current dt:dt="r8">0</Current><DateUtc dt:dt="string">2023-01-13T07:56:30Z</DateUtc></FrequencyChange></FrequencyChanges></Clock>\n	Wisconsin-1173-3	59.954	1.0.0.556	1	390228266	Professional	2.0.10.356	2.0.10.356	01-13-2023	1/13/2023 7:56:31 AM	15:56:31	2.0.10.252	3				1	1	2	BlockProc	List3	3																	3	1	3							ShapeProc	List2									9	Button1.png	Button2.png	Button3.png	Button4.png	Bluecross4.png							c	1							0	TrialProc	ShapeList	2	1	9				0	c	0	0	344007	0	x	1592	Shape
Wisconsin	1173	3	<?xml version="1.0"?>\n<Clock xmlns:dt="urn:schemas-microsoft-com:datatypes"><Description dt:dt="string">E-Prime Primary Realtime Clock</Description><StartTime><Timestamp dt:dt="int">0</Timestamp><DateUtc dt:dt="string">2023-01-13T07:56:30Z</DateUtc></StartTime><FrequencyChanges><FrequencyChange><Frequency dt:dt="r8">2929746</Frequency><Timestamp dt:dt="r8">13274554612</Timestamp><Current dt:dt="r8">0</Current><DateUtc dt:dt="string">2023-01-13T07:56:30Z</DateUtc></FrequencyChange></FrequencyChanges></Clock>\n	Wisconsin-1173-3	59.954	1.0.0.556	1	390228266	Professional	2.0.10.356	2.0.10.356	01-13-2023	1/13/2023 7:56:31 AM	15:56:31	2.0.10.252	3				1	1	2	BlockProc	List3	3																	3	1	3							ShapeProc	List2									10	Button1.png	Button2.png	Button3.png	Button4.png	Redtriangle1.png							x	1							0	TrialProc	ShapeList	7	1	10				0	x	0	1	348127	0	v	1184	Shape
