ExperimentName	Subject	Session	Clock.Information	DataFile.Basename	Display.RefreshRate	ExperimentVersion	Group	RandomSeed	RuntimeCapabilities	RuntimeVersion	RuntimeVersionExpected	SessionDate	SessionStartDateTimeUtc	SessionTime	Slide1.DEVICE	Slide2.DEVICE	Slide3.DEVICE	StudioVersion	Welcome.DEVICE	Block	GetReady.DEVICE	List1	List1.Cycle	List1.Sample	List2	List2.Cycle	List2.Sample	PracticeReady.DEVICE	Procedure[Block]	Running[Block]	Trial	CardIMG1[Trial]	CardIMG2[Trial]	CardIMG3[Trial]	CardIMG4[Trial]	CardStim[Trial]	Category	CorrectAnswer[Trial]	List3	List3.Cycle	List3.Sample	List4	List4.Cycle	List4.Sample	PracticeList	PracticeList.Cycle	PracticeList.Sample	Procedure[Trial]	Running[Trial]	Slide4.ACC	Slide4.CRESP	Slide4.DEVICE	Slide4.DurationError	Slide4.OnsetDelay	Slide4.OnsetTime	Slide4.OnsetToOnsetTime	Slide4.RESP	Slide4.RT	Slide4.RTTime	SubTrial	CardIMG1[SubTrial]	CardIMG2[SubTrial]	CardIMG3[SubTrial]	CardIMG4[SubTrial]	CardStim[SubTrial]	ColorList	ColorList.Cycle	ColorList.Sample	ColorList2	ColorList2.Cycle	ColorList2.Sample	CorrectAnswer[SubTrial]	NonPerseverativeError	NumberList	NumberList.Cycle	NumberList.Sample	NumberList2	NumberList2.Cycle	NumberList2.Sample	PerseverativeError	Procedure[SubTrial]	Running[SubTrial]	ShapeList	ShapeList.Cycle	ShapeList.Sample	ShapeList2	ShapeList2.Cycle	ShapeList2.Sample	Slide5.ACC	Slide5.CRESP	Slide5.DEVICE	Slide5.DurationError	Slide5.OnsetDelay	Slide5.OnsetTime	Slide5.OnsetToOnsetTime	Slide5.RESP	Slide5.RT	Slide5.RTTime	TrialType
Wisconsin	1174	3	<?xml version="1.0"?>\n<Clock xmlns:dt="urn:schemas-microsoft-com:datatypes"><Description dt:dt="string">E-Prime Primary Realtime Clock</Description><StartTime><Timestamp dt:dt="int">0</Timestamp><DateUtc dt:dt="string">2023-01-14T09:19:37Z</DateUtc></StartTime><FrequencyChanges><FrequencyChange><Frequency dt:dt="r8">10000000</Frequency><Timestamp dt:dt="r8">24312500921768</Timestamp><Current dt:dt="r8">0</Current><DateUtc dt:dt="string">2023-01-14T09:19:37Z</DateUtc></FrequencyChange></FrequencyChanges></Clock>\n	Wisconsin-1174-3	60.014	1.0.0.257	1	-1306348481	Full	3.0.3.80	3.0.3.80	01-14-2023	1/14/2023 9:19:38 AM	17:19:38	Keyboard	Keyboard	Keyboard	3.0.3.82	Keyboard	1	Keyboard	1	1	1				Keyboard	Practiceploc	List1	1	Button1.png	Button2.png	Button3.png	Button4.png	Greencircle3.png	顏色	{button1}							1	1	1	PracticeTrialProc	PracticeList	1	{button1}	Button	13	50	90872	0	{Button1}	1853	92725																																								
Wisconsin	1174	3	<?xml version="1.0"?>\n<Clock xmlns:dt="urn:schemas-microsoft-com:datatypes"><Description dt:dt="string">E-Prime Primary Realtime Clock</Description><StartTime><Timestamp dt:dt="int">0</Timestamp><DateUtc dt:dt="string">2023-01-14T09:19:37Z</DateUtc></StartTime><FrequencyChanges><FrequencyChange><Frequency dt:dt="r8">10000000</Frequency><Timestamp dt:dt="r8">24312500921768</Timestamp><Current dt:dt="r8">0</Current><DateUtc dt:dt="string">2023-01-14T09:19:37Z</DateUtc></FrequencyChange></FrequencyChanges></Clock>\n	Wisconsin-1174-3	60.014	1.0.0.257	1	-1306348481	Full	3.0.3.80	3.0.3.80	01-14-2023	1/14/2023 9:19:38 AM	17:19:38	Keyboard	Keyboard	Keyboard	3.0.3.82	Keyboard	1	Keyboard	1	1	1				Keyboard	Practiceploc	List1	2	Button1.png	Button2.png	Button3.png	Button4.png	Redstar2.png	顏色	{button3}							2	1	2	PracticeTrialProc	PracticeList	1	{button3}	Button	1	33	95321	0	{Button3}	924	96245																																								
Wisconsin	1174	3	<?xml version="1.0"?>\n<Clock xmlns:dt="urn:schemas-microsoft-com:datatypes"><Description dt:dt="string">E-Prime Primary Realtime Clock</Description><StartTime><Timestamp dt:dt="int">0</Timestamp><DateUtc dt:dt="string">2023-01-14T09:19:37Z</DateUtc></StartTime><FrequencyChanges><FrequencyChange><Frequency dt:dt="r8">10000000</Frequency><Timestamp dt:dt="r8">24312500921768</Timestamp><Current dt:dt="r8">0</Current><DateUtc dt:dt="string">2023-01-14T09:19:37Z</DateUtc></FrequencyChange></FrequencyChanges></Clock>\n	Wisconsin-1174-3	60.014	1.0.0.257	1	-1306348481	Full	3.0.3.80	3.0.3.80	01-14-2023	1/14/2023 9:19:38 AM	17:19:38	Keyboard	Keyboard	Keyboard	3.0.3.82	Keyboard	1	Keyboard	1	1	1				Keyboard	Practiceploc	List1	3	Button1.png	Button2.png	Button3.png	Button4.png	Bluetriangle1.png	形狀	{button2}							3	1	3	PracticeTrialProc	PracticeList	1	{button2}	Button	9	50	98837	0	{Button2}	1184	100021																																								
Wisconsin	1174	3	<?xml version="1.0"?>\n<Clock xmlns:dt="urn:schemas-microsoft-com:datatypes"><Description dt:dt="string">E-Prime Primary Realtime Clock</Description><StartTime><Timestamp dt:dt="int">0</Timestamp><DateUtc dt:dt="string">2023-01-14T09:19:37Z</DateUtc></StartTime><FrequencyChanges><FrequencyChange><Frequency dt:dt="r8">10000000</Frequency><Timestamp dt:dt="r8">24312500921768</Timestamp><Current dt:dt="r8">0</Current><DateUtc dt:dt="string">2023-01-14T09:19:37Z</DateUtc></FrequencyChange></FrequencyChanges></Clock>\n	Wisconsin-1174-3	60.014	1.0.0.257	1	-1306348481	Full	3.0.3.80	3.0.3.80	01-14-2023	1/14/2023 9:19:38 AM	17:19:38	Keyboard	Keyboard	Keyboard	3.0.3.82	Keyboard	1	Keyboard	1	1	1				Keyboard	Practiceploc	List1	4	Button1.png	Button2.png	Button3.png	Button4.png	greenstar2.png	形狀	{Button4}							4	1	4	PracticeTrialProc	PracticeList	1	{Button4}	Button	9	34	102603	0	{Button4}	1666	104269																																								
Wisconsin	1174	3	<?xml version="1.0"?>\n<Clock xmlns:dt="urn:schemas-microsoft-com:datatypes"><Description dt:dt="string">E-Prime Primary Realtime Clock</Description><StartTime><Timestamp dt:dt="int">0</Timestamp><DateUtc dt:dt="string">2023-01-14T09:19:37Z</DateUtc></StartTime><FrequencyChanges><FrequencyChange><Frequency dt:dt="r8">10000000</Frequency><Timestamp dt:dt="r8">24312500921768</Timestamp><Current dt:dt="r8">0</Current><DateUtc dt:dt="string">2023-01-14T09:19:37Z</DateUtc></FrequencyChange></FrequencyChanges></Clock>\n	Wisconsin-1174-3	60.014	1.0.0.257	1	-1306348481	Full	3.0.3.80	3.0.3.80	01-14-2023	1/14/2023 9:19:38 AM	17:19:38	Keyboard	Keyboard	Keyboard	3.0.3.82	Keyboard	1	Keyboard	1	1	1				Keyboard	Practiceploc	List1	5	Button1.png	Button2.png	Button3.png	Button4.png	BlueCross4.png	圖案數目	{Button2}							5	1	5	PracticeTrialProc	PracticeList	1	{Button2}	Button	9	34	106852	0	{Button2}	1929	108781																																								
Wisconsin	1174	3	<?xml version="1.0"?>\n<Clock xmlns:dt="urn:schemas-microsoft-com:datatypes"><Description dt:dt="string">E-Prime Primary Realtime Clock</Description><StartTime><Timestamp dt:dt="int">0</Timestamp><DateUtc dt:dt="string">2023-01-14T09:19:37Z</DateUtc></StartTime><FrequencyChanges><FrequencyChange><Frequency dt:dt="r8">10000000</Frequency><Timestamp dt:dt="r8">24312500921768</Timestamp><Current dt:dt="r8">0</Current><DateUtc dt:dt="string">2023-01-14T09:19:37Z</DateUtc></FrequencyChange></FrequencyChanges></Clock>\n	Wisconsin-1174-3	60.014	1.0.0.257	1	-1306348481	Full	3.0.3.80	3.0.3.80	01-14-2023	1/14/2023 9:19:38 AM	17:19:38	Keyboard	Keyboard	Keyboard	3.0.3.82	Keyboard	1	Keyboard	1	1	1				Keyboard	Practiceploc	List1	6	Button1.png	Button2.png	Button3.png	Button4.png	yellowcircle2.png	圖案數目	{Button1}							6	1	6	PracticeTrialProc	PracticeList	1	{Button1}	Button	12	33	111367	0	{Button1}	1070	112437																																								
Wisconsin	1174	3	<?xml version="1.0"?>\n<Clock xmlns:dt="urn:schemas-microsoft-com:datatypes"><Description dt:dt="string">E-Prime Primary Realtime Clock</Description><StartTime><Timestamp dt:dt="int">0</Timestamp><DateUtc dt:dt="string">2023-01-14T09:19:37Z</DateUtc></StartTime><FrequencyChanges><FrequencyChange><Frequency dt:dt="r8">10000000</Frequency><Timestamp dt:dt="r8">24312500921768</Timestamp><Current dt:dt="r8">0</Current><DateUtc dt:dt="string">2023-01-14T09:19:37Z</DateUtc></FrequencyChange></FrequencyChanges></Clock>\n	Wisconsin-1174-3	60.014	1.0.0.257	1	-1306348481	Full	3.0.3.80	3.0.3.80	01-14-2023	1/14/2023 9:19:38 AM	17:19:38	Keyboard	Keyboard	Keyboard	3.0.3.82	Keyboard	2					1	1	1		BlockProc	List2	1								2	1	1							ShapeProc	List3											1	Button1.png	Button2.png	Button3.png	Button4.png	Bluecross4.png							{Button3}	0							0	TrialProc	ShapeList	2	1	1				1	{Button3}	Button	2	33	144176	0	{Button3}	3053	147229	Shape
Wisconsin	1174	3	<?xml version="1.0"?>\n<Clock xmlns:dt="urn:schemas-microsoft-com:datatypes"><Description dt:dt="string">E-Prime Primary Realtime Clock</Description><StartTime><Timestamp dt:dt="int">0</Timestamp><DateUtc dt:dt="string">2023-01-14T09:19:37Z</DateUtc></StartTime><FrequencyChanges><FrequencyChange><Frequency dt:dt="r8">10000000</Frequency><Timestamp dt:dt="r8">24312500921768</Timestamp><Current dt:dt="r8">0</Current><DateUtc dt:dt="string">2023-01-14T09:19:37Z</DateUtc></FrequencyChange></FrequencyChanges></Clock>\n	Wisconsin-1174-3	60.014	1.0.0.257	1	-1306348481	Full	3.0.3.80	3.0.3.80	01-14-2023	1/14/2023 9:19:38 AM	17:19:38	Keyboard	Keyboard	Keyboard	3.0.3.82	Keyboard	2					1	1	1		BlockProc	List2	1								2	1	1							ShapeProc	List3											2	Button1.png	Button2.png	Button3.png	Button4.png	Bluecircle2.png							{Button1}	0							0	TrialProc	ShapeList	1	1	2				1	{Button1}	Button	10	49	149824	0	{Button1}	1117	150941	Shape
Wisconsin	1174	3	<?xml version="1.0"?>\n<Clock xmlns:dt="urn:schemas-microsoft-com:datatypes"><Description dt:dt="string">E-Prime Primary Realtime Clock</Description><StartTime><Timestamp dt:dt="int">0</Timestamp><DateUtc dt:dt="string">2023-01-14T09:19:37Z</DateUtc></StartTime><FrequencyChanges><FrequencyChange><Frequency dt:dt="r8">10000000</Frequency><Timestamp dt:dt="r8">24312500921768</Timestamp><Current dt:dt="r8">0</Current><DateUtc dt:dt="string">2023-01-14T09:19:37Z</DateUtc></FrequencyChange></FrequencyChanges></Clock>\n	Wisconsin-1174-3	60.014	1.0.0.257	1	-1306348481	Full	3.0.3.80	3.0.3.80	01-14-2023	1/14/2023 9:19:38 AM	17:19:38	Keyboard	Keyboard	Keyboard	3.0.3.82	Keyboard	2					1	1	1		BlockProc	List2	1								2	1	1							ShapeProc	List3											3	Button1.png	Button2.png	Button3.png	Button4.png	Redcross1.png							{Button3}	0							0	TrialProc	ShapeList	5	1	3				1	{Button3}	Button	2	50	153540	0	{Button3}	753	154293	Shape
Wisconsin	1174	3	<?xml version="1.0"?>\n<Clock xmlns:dt="urn:schemas-microsoft-com:datatypes"><Description dt:dt="string">E-Prime Primary Realtime Clock</Description><StartTime><Timestamp dt:dt="int">0</Timestamp><DateUtc dt:dt="string">2023-01-14T09:19:37Z</DateUtc></StartTime><FrequencyChanges><FrequencyChange><Frequency dt:dt="r8">10000000</Frequency><Timestamp dt:dt="r8">24312500921768</Timestamp><Current dt:dt="r8">0</Current><DateUtc dt:dt="string">2023-01-14T09:19:37Z</DateUtc></FrequencyChange></FrequencyChanges></Clock>\n	Wisconsin-1174-3	60.014	1.0.0.257	1	-1306348481	Full	3.0.3.80	3.0.3.80	01-14-2023	1/14/2023 9:19:38 AM	17:19:38	Keyboard	Keyboard	Keyboard	3.0.3.82	Keyboard	2					1	1	1		BlockProc	List2	1								2	1	1							ShapeProc	List3											4	Button1.png	Button2.png	Button3.png	Button4.png	Greencross1.png							{Button3}	0							0	TrialProc	ShapeList	3	1	4				0	{Button3}	Button	1	33	156873	0	{Button1}	828	157701	Shape
Wisconsin	1174	3	<?xml version="1.0"?>\n<Clock xmlns:dt="urn:schemas-microsoft-com:datatypes"><Description dt:dt="string">E-Prime Primary Realtime Clock</Description><StartTime><Timestamp dt:dt="int">0</Timestamp><DateUtc dt:dt="string">2023-01-14T09:19:37Z</DateUtc></StartTime><FrequencyChanges><FrequencyChange><Frequency dt:dt="r8">10000000</Frequency><Timestamp dt:dt="r8">24312500921768</Timestamp><Current dt:dt="r8">0</Current><DateUtc dt:dt="string">2023-01-14T09:19:37Z</DateUtc></FrequencyChange></FrequencyChanges></Clock>\n	Wisconsin-1174-3	60.014	1.0.0.257	1	-1306348481	Full	3.0.3.80	3.0.3.80	01-14-2023	1/14/2023 9:19:38 AM	17:19:38	Keyboard	Keyboard	Keyboard	3.0.3.82	Keyboard	2					1	1	1		BlockProc	List2	1								2	1	1							ShapeProc	List3											5	Button1.png	Button2.png	Button3.png	Button4.png	Yellowstar4.png							{Button4}	0							0	TrialProc	ShapeList	10	1	5				0	{Button4}	Button	2	33	160288	0	{Button2}	701	160989	Shape
Wisconsin	1174	3	<?xml version="1.0"?>\n<Clock xmlns:dt="urn:schemas-microsoft-com:datatypes"><Description dt:dt="string">E-Prime Primary Realtime Clock</Description><StartTime><Timestamp dt:dt="int">0</Timestamp><DateUtc dt:dt="string">2023-01-14T09:19:37Z</DateUtc></StartTime><FrequencyChanges><FrequencyChange><Frequency dt:dt="r8">10000000</Frequency><Timestamp dt:dt="r8">24312500921768</Timestamp><Current dt:dt="r8">0</Current><DateUtc dt:dt="string">2023-01-14T09:19:37Z</DateUtc></FrequencyChange></FrequencyChanges></Clock>\n	Wisconsin-1174-3	60.014	1.0.0.257	1	-1306348481	Full	3.0.3.80	3.0.3.80	01-14-2023	1/14/2023 9:19:38 AM	17:19:38	Keyboard	Keyboard	Keyboard	3.0.3.82	Keyboard	2					1	1	1		BlockProc	List2	1								2	1	1							ShapeProc	List3											6	Button1.png	Button2.png	Button3.png	Button4.png	Yellowstar1.png							{Button4}	0							0	TrialProc	ShapeList	9	1	6				1	{Button4}	Button	10	33	163571	0	{Button4}	938	164509	Shape
Wisconsin	1174	3	<?xml version="1.0"?>\n<Clock xmlns:dt="urn:schemas-microsoft-com:datatypes"><Description dt:dt="string">E-Prime Primary Realtime Clock</Description><StartTime><Timestamp dt:dt="int">0</Timestamp><DateUtc dt:dt="string">2023-01-14T09:19:37Z</DateUtc></StartTime><FrequencyChanges><FrequencyChange><Frequency dt:dt="r8">10000000</Frequency><Timestamp dt:dt="r8">24312500921768</Timestamp><Current dt:dt="r8">0</Current><DateUtc dt:dt="string">2023-01-14T09:19:37Z</DateUtc></FrequencyChange></FrequencyChanges></Clock>\n	Wisconsin-1174-3	60.014	1.0.0.257	1	-1306348481	Full	3.0.3.80	3.0.3.80	01-14-2023	1/14/2023 9:19:38 AM	17:19:38	Keyboard	Keyboard	Keyboard	3.0.3.82	Keyboard	2					1	1	1		BlockProc	List2	1								2	1	1							ShapeProc	List3											7	Button1.png	Button2.png	Button3.png	Button4.png	Greentriangle4.png							{Button2}	0							0	TrialProc	ShapeList	4	1	7				0	{Button2}	Button	1	33	167087	0	{Button4}	1638	168725	Shape
Wisconsin	1174	3	<?xml version="1.0"?>\n<Clock xmlns:dt="urn:schemas-microsoft-com:datatypes"><Description dt:dt="string">E-Prime Primary Realtime Clock</Description><StartTime><Timestamp dt:dt="int">0</Timestamp><DateUtc dt:dt="string">2023-01-14T09:19:37Z</DateUtc></StartTime><FrequencyChanges><FrequencyChange><Frequency dt:dt="r8">10000000</Frequency><Timestamp dt:dt="r8">24312500921768</Timestamp><Current dt:dt="r8">0</Current><DateUtc dt:dt="string">2023-01-14T09:19:37Z</DateUtc></FrequencyChange></FrequencyChanges></Clock>\n	Wisconsin-1174-3	60.014	1.0.0.257	1	-1306348481	Full	3.0.3.80	3.0.3.80	01-14-2023	1/14/2023 9:19:38 AM	17:19:38	Keyboard	Keyboard	Keyboard	3.0.3.82	Keyboard	2					1	1	1		BlockProc	List2	1								2	1	1							ShapeProc	List3											8	Button1.png	Button2.png	Button3.png	Button4.png	Redtriangle1.png							{Button2}	0							0	TrialProc	ShapeList	7	1	8				1	{Button2}	Button	2	33	171302	0	{Button2}	991	172293	Shape
Wisconsin	1174	3	<?xml version="1.0"?>\n<Clock xmlns:dt="urn:schemas-microsoft-com:datatypes"><Description dt:dt="string">E-Prime Primary Realtime Clock</Description><StartTime><Timestamp dt:dt="int">0</Timestamp><DateUtc dt:dt="string">2023-01-14T09:19:37Z</DateUtc></StartTime><FrequencyChanges><FrequencyChange><Frequency dt:dt="r8">10000000</Frequency><Timestamp dt:dt="r8">24312500921768</Timestamp><Current dt:dt="r8">0</Current><DateUtc dt:dt="string">2023-01-14T09:19:37Z</DateUtc></FrequencyChange></FrequencyChanges></Clock>\n	Wisconsin-1174-3	60.014	1.0.0.257	1	-1306348481	Full	3.0.3.80	3.0.3.80	01-14-2023	1/14/2023 9:19:38 AM	17:19:38	Keyboard	Keyboard	Keyboard	3.0.3.82	Keyboard	2					1	1	1		BlockProc	List2	1								2	1	1							ShapeProc	List3											9	Button1.png	Button2.png	Button3.png	Button4.png	yellowcircle3.png							{Button1}	0							0	TrialProc	ShapeList	8	1	9				1	{Button1}	Button	9	33	174868	0	{Button1}	1521	176389	Shape
Wisconsin	1174	3	<?xml version="1.0"?>\n<Clock xmlns:dt="urn:schemas-microsoft-com:datatypes"><Description dt:dt="string">E-Prime Primary Realtime Clock</Description><StartTime><Timestamp dt:dt="int">0</Timestamp><DateUtc dt:dt="string">2023-01-14T09:19:37Z</DateUtc></StartTime><FrequencyChanges><FrequencyChange><Frequency dt:dt="r8">10000000</Frequency><Timestamp dt:dt="r8">24312500921768</Timestamp><Current dt:dt="r8">0</Current><DateUtc dt:dt="string">2023-01-14T09:19:37Z</DateUtc></FrequencyChange></FrequencyChanges></Clock>\n	Wisconsin-1174-3	60.014	1.0.0.257	1	-1306348481	Full	3.0.3.80	3.0.3.80	01-14-2023	1/14/2023 9:19:38 AM	17:19:38	Keyboard	Keyboard	Keyboard	3.0.3.82	Keyboard	2					1	1	1		BlockProc	List2	1								2	1	1							ShapeProc	List3											10	Button1.png	Button2.png	Button3.png	Button4.png	Redcross4.png							{Button3}	0							0	TrialProc	ShapeList	6	1	10				1	{Button3}	Button	2	33	178967	0	{Button3}	894	179861	Shape
Wisconsin	1174	3	<?xml version="1.0"?>\n<Clock xmlns:dt="urn:schemas-microsoft-com:datatypes"><Description dt:dt="string">E-Prime Primary Realtime Clock</Description><StartTime><Timestamp dt:dt="int">0</Timestamp><DateUtc dt:dt="string">2023-01-14T09:19:37Z</DateUtc></StartTime><FrequencyChanges><FrequencyChange><Frequency dt:dt="r8">10000000</Frequency><Timestamp dt:dt="r8">24312500921768</Timestamp><Current dt:dt="r8">0</Current><DateUtc dt:dt="string">2023-01-14T09:19:37Z</DateUtc></FrequencyChange></FrequencyChanges></Clock>\n	Wisconsin-1174-3	60.014	1.0.0.257	1	-1306348481	Full	3.0.3.80	3.0.3.80	01-14-2023	1/14/2023 9:19:38 AM	17:19:38	Keyboard	Keyboard	Keyboard	3.0.3.82	Keyboard	2					1	1	1		BlockProc	List2	2								3	1	2							NumberProc	List3											1	Button1.png	Button2.png	Button3.png	Button4.png	Bluecircle4.png							{Button2}	0	1	1	1				0	TrialProc	NumberList							1	{Button2}	Button	10	33	182433	0	{Button2}	932	183365	number
Wisconsin	1174	3	<?xml version="1.0"?>\n<Clock xmlns:dt="urn:schemas-microsoft-com:datatypes"><Description dt:dt="string">E-Prime Primary Realtime Clock</Description><StartTime><Timestamp dt:dt="int">0</Timestamp><DateUtc dt:dt="string">2023-01-14T09:19:37Z</DateUtc></StartTime><FrequencyChanges><FrequencyChange><Frequency dt:dt="r8">10000000</Frequency><Timestamp dt:dt="r8">24312500921768</Timestamp><Current dt:dt="r8">0</Current><DateUtc dt:dt="string">2023-01-14T09:19:37Z</DateUtc></FrequencyChange></FrequencyChanges></Clock>\n	Wisconsin-1174-3	60.014	1.0.0.257	1	-1306348481	Full	3.0.3.80	3.0.3.80	01-14-2023	1/14/2023 9:19:38 AM	17:19:38	Keyboard	Keyboard	Keyboard	3.0.3.82	Keyboard	2					1	1	1		BlockProc	List2	2								3	1	2							NumberProc	List3											2	Button1.png	Button2.png	Button3.png	Button4.png	Yellowcross3.png							{Button3}	0	10	1	2				0	TrialProc	NumberList							1	{Button3}	Button	10	33	185949	0	{Button3}	872	186821	number
Wisconsin	1174	3	<?xml version="1.0"?>\n<Clock xmlns:dt="urn:schemas-microsoft-com:datatypes"><Description dt:dt="string">E-Prime Primary Realtime Clock</Description><StartTime><Timestamp dt:dt="int">0</Timestamp><DateUtc dt:dt="string">2023-01-14T09:19:37Z</DateUtc></StartTime><FrequencyChanges><FrequencyChange><Frequency dt:dt="r8">10000000</Frequency><Timestamp dt:dt="r8">24312500921768</Timestamp><Current dt:dt="r8">0</Current><DateUtc dt:dt="string">2023-01-14T09:19:37Z</DateUtc></FrequencyChange></FrequencyChanges></Clock>\n	Wisconsin-1174-3	60.014	1.0.0.257	1	-1306348481	Full	3.0.3.80	3.0.3.80	01-14-2023	1/14/2023 9:19:38 AM	17:19:38	Keyboard	Keyboard	Keyboard	3.0.3.82	Keyboard	2					1	1	1		BlockProc	List2	2								3	1	2							NumberProc	List3											3	Button1.png	Button2.png	Button3.png	Button4.png	Redstar2.png							{Button1}	0	7	1	3				0	TrialProc	NumberList							0	{Button1}	Button	10	33	189398	0	{Button4}	1127	190525	number
Wisconsin	1174	3	<?xml version="1.0"?>\n<Clock xmlns:dt="urn:schemas-microsoft-com:datatypes"><Description dt:dt="string">E-Prime Primary Realtime Clock</Description><StartTime><Timestamp dt:dt="int">0</Timestamp><DateUtc dt:dt="string">2023-01-14T09:19:37Z</DateUtc></StartTime><FrequencyChanges><FrequencyChange><Frequency dt:dt="r8">10000000</Frequency><Timestamp dt:dt="r8">24312500921768</Timestamp><Current dt:dt="r8">0</Current><DateUtc dt:dt="string">2023-01-14T09:19:37Z</DateUtc></FrequencyChange></FrequencyChanges></Clock>\n	Wisconsin-1174-3	60.014	1.0.0.257	1	-1306348481	Full	3.0.3.80	3.0.3.80	01-14-2023	1/14/2023 9:19:38 AM	17:19:38	Keyboard	Keyboard	Keyboard	3.0.3.82	Keyboard	2					1	1	1		BlockProc	List2	2								3	1	2							NumberProc	List3											4	Button1.png	Button2.png	Button3.png	Button4.png	Yellowcross1.png							{Button4}	0	9	1	4				0	TrialProc	NumberList							0	{Button4}	Button	2	33	193097	0	{Button3}	1292	194389	number
Wisconsin	1174	3	<?xml version="1.0"?>\n<Clock xmlns:dt="urn:schemas-microsoft-com:datatypes"><Description dt:dt="string">E-Prime Primary Realtime Clock</Description><StartTime><Timestamp dt:dt="int">0</Timestamp><DateUtc dt:dt="string">2023-01-14T09:19:37Z</DateUtc></StartTime><FrequencyChanges><FrequencyChange><Frequency dt:dt="r8">10000000</Frequency><Timestamp dt:dt="r8">24312500921768</Timestamp><Current dt:dt="r8">0</Current><DateUtc dt:dt="string">2023-01-14T09:19:37Z</DateUtc></FrequencyChange></FrequencyChanges></Clock>\n	Wisconsin-1174-3	60.014	1.0.0.257	1	-1306348481	Full	3.0.3.80	3.0.3.80	01-14-2023	1/14/2023 9:19:38 AM	17:19:38	Keyboard	Keyboard	Keyboard	3.0.3.82	Keyboard	2					1	1	1		BlockProc	List2	2								3	1	2							NumberProc	List3											5	Button1.png	Button2.png	Button3.png	Button4.png	Greencircle4.png							{Button2}	0	4	1	5				0	TrialProc	NumberList							1	{Button2}	Button	9	33	196963	0	{Button2}	794	197757	number
Wisconsin	1174	3	<?xml version="1.0"?>\n<Clock xmlns:dt="urn:schemas-microsoft-com:datatypes"><Description dt:dt="string">E-Prime Primary Realtime Clock</Description><StartTime><Timestamp dt:dt="int">0</Timestamp><DateUtc dt:dt="string">2023-01-14T09:19:37Z</DateUtc></StartTime><FrequencyChanges><FrequencyChange><Frequency dt:dt="r8">10000000</Frequency><Timestamp dt:dt="r8">24312500921768</Timestamp><Current dt:dt="r8">0</Current><DateUtc dt:dt="string">2023-01-14T09:19:37Z</DateUtc></FrequencyChange></FrequencyChanges></Clock>\n	Wisconsin-1174-3	60.014	1.0.0.257	1	-1306348481	Full	3.0.3.80	3.0.3.80	01-14-2023	1/14/2023 9:19:38 AM	17:19:38	Keyboard	Keyboard	Keyboard	3.0.3.82	Keyboard	2					1	1	1		BlockProc	List2	2								3	1	2							NumberProc	List3											6	Button1.png	Button2.png	Button3.png	Button4.png	Greencross3.png							{Button3}	0	5	1	6				0	TrialProc	NumberList							1	{Button3}	Button	10	33	200329	0	{Button3}	1348	201677	number
Wisconsin	1174	3	<?xml version="1.0"?>\n<Clock xmlns:dt="urn:schemas-microsoft-com:datatypes"><Description dt:dt="string">E-Prime Primary Realtime Clock</Description><StartTime><Timestamp dt:dt="int">0</Timestamp><DateUtc dt:dt="string">2023-01-14T09:19:37Z</DateUtc></StartTime><FrequencyChanges><FrequencyChange><Frequency dt:dt="r8">10000000</Frequency><Timestamp dt:dt="r8">24312500921768</Timestamp><Current dt:dt="r8">0</Current><DateUtc dt:dt="string">2023-01-14T09:19:37Z</DateUtc></FrequencyChange></FrequencyChanges></Clock>\n	Wisconsin-1174-3	60.014	1.0.0.257	1	-1306348481	Full	3.0.3.80	3.0.3.80	01-14-2023	1/14/2023 9:19:38 AM	17:19:38	Keyboard	Keyboard	Keyboard	3.0.3.82	Keyboard	2					1	1	1		BlockProc	List2	2								3	1	2							NumberProc	List3											7	Button1.png	Button2.png	Button3.png	Button4.png	Bluestar2.png							{Button1}	0	2	1	7				0	TrialProc	NumberList							0	{Button1}	Button	10	33	204261	0	{Button4}	1472	205733	number
Wisconsin	1174	3	<?xml version="1.0"?>\n<Clock xmlns:dt="urn:schemas-microsoft-com:datatypes"><Description dt:dt="string">E-Prime Primary Realtime Clock</Description><StartTime><Timestamp dt:dt="int">0</Timestamp><DateUtc dt:dt="string">2023-01-14T09:19:37Z</DateUtc></StartTime><FrequencyChanges><FrequencyChange><Frequency dt:dt="r8">10000000</Frequency><Timestamp dt:dt="r8">24312500921768</Timestamp><Current dt:dt="r8">0</Current><DateUtc dt:dt="string">2023-01-14T09:19:37Z</DateUtc></FrequencyChange></FrequencyChanges></Clock>\n	Wisconsin-1174-3	60.014	1.0.0.257	1	-1306348481	Full	3.0.3.80	3.0.3.80	01-14-2023	1/14/2023 9:19:38 AM	17:19:38	Keyboard	Keyboard	Keyboard	3.0.3.82	Keyboard	2					1	1	1		BlockProc	List2	2								3	1	2							NumberProc	List3											8	Button1.png	Button2.png	Button3.png	Button4.png	Redcircle4.png							{Button2}	0	6	1	8				0	TrialProc	NumberList							0	{Button2}	Button	9	33	208310	0	{Button1}	1319	209629	number
Wisconsin	1174	3	<?xml version="1.0"?>\n<Clock xmlns:dt="urn:schemas-microsoft-com:datatypes"><Description dt:dt="string">E-Prime Primary Realtime Clock</Description><StartTime><Timestamp dt:dt="int">0</Timestamp><DateUtc dt:dt="string">2023-01-14T09:19:37Z</DateUtc></StartTime><FrequencyChanges><FrequencyChange><Frequency dt:dt="r8">10000000</Frequency><Timestamp dt:dt="r8">24312500921768</Timestamp><Current dt:dt="r8">0</Current><DateUtc dt:dt="string">2023-01-14T09:19:37Z</DateUtc></FrequencyChange></FrequencyChanges></Clock>\n	Wisconsin-1174-3	60.014	1.0.0.257	1	-1306348481	Full	3.0.3.80	3.0.3.80	01-14-2023	1/14/2023 9:19:38 AM	17:19:38	Keyboard	Keyboard	Keyboard	3.0.3.82	Keyboard	2					1	1	1		BlockProc	List2	2								3	1	2							NumberProc	List3											9	Button1.png	Button2.png	Button3.png	Button4.png	Redtriangle4.png							{Button2}	0	8	1	9				0	TrialProc	NumberList							1	{Button2}	Button	10	33	212209	0	{Button2}	940	213149	number
Wisconsin	1174	3	<?xml version="1.0"?>\n<Clock xmlns:dt="urn:schemas-microsoft-com:datatypes"><Description dt:dt="string">E-Prime Primary Realtime Clock</Description><StartTime><Timestamp dt:dt="int">0</Timestamp><DateUtc dt:dt="string">2023-01-14T09:19:37Z</DateUtc></StartTime><FrequencyChanges><FrequencyChange><Frequency dt:dt="r8">10000000</Frequency><Timestamp dt:dt="r8">24312500921768</Timestamp><Current dt:dt="r8">0</Current><DateUtc dt:dt="string">2023-01-14T09:19:37Z</DateUtc></FrequencyChange></FrequencyChanges></Clock>\n	Wisconsin-1174-3	60.014	1.0.0.257	1	-1306348481	Full	3.0.3.80	3.0.3.80	01-14-2023	1/14/2023 9:19:38 AM	17:19:38	Keyboard	Keyboard	Keyboard	3.0.3.82	Keyboard	2					1	1	1		BlockProc	List2	2								3	1	2							NumberProc	List3											10	Button1.png	Button2.png	Button3.png	Button4.png	Bluetriangle1.png							{Button4}	0	3	1	10				0	TrialProc	NumberList							0	{Button4}	Button	1	33	215725	0	{Button2}	1144	216869	number
Wisconsin	1174	3	<?xml version="1.0"?>\n<Clock xmlns:dt="urn:schemas-microsoft-com:datatypes"><Description dt:dt="string">E-Prime Primary Realtime Clock</Description><StartTime><Timestamp dt:dt="int">0</Timestamp><DateUtc dt:dt="string">2023-01-14T09:19:37Z</DateUtc></StartTime><FrequencyChanges><FrequencyChange><Frequency dt:dt="r8">10000000</Frequency><Timestamp dt:dt="r8">24312500921768</Timestamp><Current dt:dt="r8">0</Current><DateUtc dt:dt="string">2023-01-14T09:19:37Z</DateUtc></FrequencyChange></FrequencyChanges></Clock>\n	Wisconsin-1174-3	60.014	1.0.0.257	1	-1306348481	Full	3.0.3.80	3.0.3.80	01-14-2023	1/14/2023 9:19:38 AM	17:19:38	Keyboard	Keyboard	Keyboard	3.0.3.82	Keyboard	2					1	1	1		BlockProc	List2	3								1	1	3							ColorProc	List3											1	BUTTON1.png	BUTTON2.PNG	BUTTON3.png	BUTTON4.png	greencircle3.png	4	1	1				{button1}	0							0	TrialProc	ColorList							0	{button1}	Button	1	33	219441	0	{Button3}	1188	220629	Color
Wisconsin	1174	3	<?xml version="1.0"?>\n<Clock xmlns:dt="urn:schemas-microsoft-com:datatypes"><Description dt:dt="string">E-Prime Primary Realtime Clock</Description><StartTime><Timestamp dt:dt="int">0</Timestamp><DateUtc dt:dt="string">2023-01-14T09:19:37Z</DateUtc></StartTime><FrequencyChanges><FrequencyChange><Frequency dt:dt="r8">10000000</Frequency><Timestamp dt:dt="r8">24312500921768</Timestamp><Current dt:dt="r8">0</Current><DateUtc dt:dt="string">2023-01-14T09:19:37Z</DateUtc></FrequencyChange></FrequencyChanges></Clock>\n	Wisconsin-1174-3	60.014	1.0.0.257	1	-1306348481	Full	3.0.3.80	3.0.3.80	01-14-2023	1/14/2023 9:19:38 AM	17:19:38	Keyboard	Keyboard	Keyboard	3.0.3.82	Keyboard	2					1	1	1		BlockProc	List2	3								1	1	3							ColorProc	List3											2	BUTTON1.png	BUTTON2.PNG	BUTTON3.png	BUTTON4.png	yellowstar3.png	10	1	2				{button2}	0							0	TrialProc	ColorList							0	{button2}	Button	2	33	223206	0	{Button4}	1535	224741	Color
Wisconsin	1174	3	<?xml version="1.0"?>\n<Clock xmlns:dt="urn:schemas-microsoft-com:datatypes"><Description dt:dt="string">E-Prime Primary Realtime Clock</Description><StartTime><Timestamp dt:dt="int">0</Timestamp><DateUtc dt:dt="string">2023-01-14T09:19:37Z</DateUtc></StartTime><FrequencyChanges><FrequencyChange><Frequency dt:dt="r8">10000000</Frequency><Timestamp dt:dt="r8">24312500921768</Timestamp><Current dt:dt="r8">0</Current><DateUtc dt:dt="string">2023-01-14T09:19:37Z</DateUtc></FrequencyChange></FrequencyChanges></Clock>\n	Wisconsin-1174-3	60.014	1.0.0.257	1	-1306348481	Full	3.0.3.80	3.0.3.80	01-14-2023	1/14/2023 9:19:38 AM	17:19:38	Keyboard	Keyboard	Keyboard	3.0.3.82	Keyboard	2					1	1	1		BlockProc	List2	3								1	1	3							ColorProc	List3											3	BUTTON1.png	BUTTON2.PNG	BUTTON3.png	BUTTON4.png	bluecircle1.png	1	1	3				{button4}	0							0	TrialProc	ColorList							0	{button4}	Button	10	33	227322	0	{Button1}	971	228293	Color
Wisconsin	1174	3	<?xml version="1.0"?>\n<Clock xmlns:dt="urn:schemas-microsoft-com:datatypes"><Description dt:dt="string">E-Prime Primary Realtime Clock</Description><StartTime><Timestamp dt:dt="int">0</Timestamp><DateUtc dt:dt="string">2023-01-14T09:19:37Z</DateUtc></StartTime><FrequencyChanges><FrequencyChange><Frequency dt:dt="r8">10000000</Frequency><Timestamp dt:dt="r8">24312500921768</Timestamp><Current dt:dt="r8">0</Current><DateUtc dt:dt="string">2023-01-14T09:19:37Z</DateUtc></FrequencyChange></FrequencyChanges></Clock>\n	Wisconsin-1174-3	60.014	1.0.0.257	1	-1306348481	Full	3.0.3.80	3.0.3.80	01-14-2023	1/14/2023 9:19:38 AM	17:19:38	Keyboard	Keyboard	Keyboard	3.0.3.82	Keyboard	2					1	1	1		BlockProc	List2	3								1	1	3							ColorProc	List3											4	BUTTON1.png	BUTTON2.PNG	BUTTON3.png	BUTTON4.png	redcircle3.png	8	1	4				{button3}	0							0	TrialProc	ColorList							1	{button3}	Button	2	33	230871	0	{Button3}	1102	231973	Color
Wisconsin	1174	3	<?xml version="1.0"?>\n<Clock xmlns:dt="urn:schemas-microsoft-com:datatypes"><Description dt:dt="string">E-Prime Primary Realtime Clock</Description><StartTime><Timestamp dt:dt="int">0</Timestamp><DateUtc dt:dt="string">2023-01-14T09:19:37Z</DateUtc></StartTime><FrequencyChanges><FrequencyChange><Frequency dt:dt="r8">10000000</Frequency><Timestamp dt:dt="r8">24312500921768</Timestamp><Current dt:dt="r8">0</Current><DateUtc dt:dt="string">2023-01-14T09:19:37Z</DateUtc></FrequencyChange></FrequencyChanges></Clock>\n	Wisconsin-1174-3	60.014	1.0.0.257	1	-1306348481	Full	3.0.3.80	3.0.3.80	01-14-2023	1/14/2023 9:19:38 AM	17:19:38	Keyboard	Keyboard	Keyboard	3.0.3.82	Keyboard	2					1	1	1		BlockProc	List2	3								1	1	3							ColorProc	List3											5	BUTTON1.png	BUTTON2.PNG	BUTTON3.png	BUTTON4.png	bluecross2.png	2	1	5				{button4}	0							0	TrialProc	ColorList							1	{button4}	Button	2	33	234554	0	{Button4}	1323	235877	Color
Wisconsin	1174	3	<?xml version="1.0"?>\n<Clock xmlns:dt="urn:schemas-microsoft-com:datatypes"><Description dt:dt="string">E-Prime Primary Realtime Clock</Description><StartTime><Timestamp dt:dt="int">0</Timestamp><DateUtc dt:dt="string">2023-01-14T09:19:37Z</DateUtc></StartTime><FrequencyChanges><FrequencyChange><Frequency dt:dt="r8">10000000</Frequency><Timestamp dt:dt="r8">24312500921768</Timestamp><Current dt:dt="r8">0</Current><DateUtc dt:dt="string">2023-01-14T09:19:37Z</DateUtc></FrequencyChange></FrequencyChanges></Clock>\n	Wisconsin-1174-3	60.014	1.0.0.257	1	-1306348481	Full	3.0.3.80	3.0.3.80	01-14-2023	1/14/2023 9:19:38 AM	17:19:38	Keyboard	Keyboard	Keyboard	3.0.3.82	Keyboard	2					1	1	1		BlockProc	List2	3								1	1	3							ColorProc	List3											6	BUTTON1.png	BUTTON2.PNG	BUTTON3.png	BUTTON4.png	greentriangle3.png	7	1	6				{button1}	0							0	TrialProc	ColorList							0	{button1}	Button	9	33	238453	0	{Button2}	1600	240053	Color
Wisconsin	1174	3	<?xml version="1.0"?>\n<Clock xmlns:dt="urn:schemas-microsoft-com:datatypes"><Description dt:dt="string">E-Prime Primary Realtime Clock</Description><StartTime><Timestamp dt:dt="int">0</Timestamp><DateUtc dt:dt="string">2023-01-14T09:19:37Z</DateUtc></StartTime><FrequencyChanges><FrequencyChange><Frequency dt:dt="r8">10000000</Frequency><Timestamp dt:dt="r8">24312500921768</Timestamp><Current dt:dt="r8">0</Current><DateUtc dt:dt="string">2023-01-14T09:19:37Z</DateUtc></FrequencyChange></FrequencyChanges></Clock>\n	Wisconsin-1174-3	60.014	1.0.0.257	1	-1306348481	Full	3.0.3.80	3.0.3.80	01-14-2023	1/14/2023 9:19:38 AM	17:19:38	Keyboard	Keyboard	Keyboard	3.0.3.82	Keyboard	2					1	1	1		BlockProc	List2	3								1	1	3							ColorProc	List3											7	BUTTON1.png	BUTTON2.PNG	BUTTON3.png	BUTTON4.png	yellowcircle1.png	9	1	7				{button2}	0							0	TrialProc	ColorList							0	{button2}	Button	11	33	242635	0	{Button1}	1706	244341	Color
Wisconsin	1174	3	<?xml version="1.0"?>\n<Clock xmlns:dt="urn:schemas-microsoft-com:datatypes"><Description dt:dt="string">E-Prime Primary Realtime Clock</Description><StartTime><Timestamp dt:dt="int">0</Timestamp><DateUtc dt:dt="string">2023-01-14T09:19:37Z</DateUtc></StartTime><FrequencyChanges><FrequencyChange><Frequency dt:dt="r8">10000000</Frequency><Timestamp dt:dt="r8">24312500921768</Timestamp><Current dt:dt="r8">0</Current><DateUtc dt:dt="string">2023-01-14T09:19:37Z</DateUtc></FrequencyChange></FrequencyChanges></Clock>\n	Wisconsin-1174-3	60.014	1.0.0.257	1	-1306348481	Full	3.0.3.80	3.0.3.80	01-14-2023	1/14/2023 9:19:38 AM	17:19:38	Keyboard	Keyboard	Keyboard	3.0.3.82	Keyboard	2					1	1	1		BlockProc	List2	3								1	1	3							ColorProc	List3											8	BUTTON1.png	BUTTON2.PNG	BUTTON3.png	BUTTON4.png	bluetriangle3.png	3	1	8				{button4}	0							0	TrialProc	ColorList							0	{button4}	Button	2	33	246917	0	{Button3}	1136	248053	Color
Wisconsin	1174	3	<?xml version="1.0"?>\n<Clock xmlns:dt="urn:schemas-microsoft-com:datatypes"><Description dt:dt="string">E-Prime Primary Realtime Clock</Description><StartTime><Timestamp dt:dt="int">0</Timestamp><DateUtc dt:dt="string">2023-01-14T09:19:37Z</DateUtc></StartTime><FrequencyChanges><FrequencyChange><Frequency dt:dt="r8">10000000</Frequency><Timestamp dt:dt="r8">24312500921768</Timestamp><Current dt:dt="r8">0</Current><DateUtc dt:dt="string">2023-01-14T09:19:37Z</DateUtc></FrequencyChange></FrequencyChanges></Clock>\n	Wisconsin-1174-3	60.014	1.0.0.257	1	-1306348481	Full	3.0.3.80	3.0.3.80	01-14-2023	1/14/2023 9:19:38 AM	17:19:38	Keyboard	Keyboard	Keyboard	3.0.3.82	Keyboard	2					1	1	1		BlockProc	List2	3								1	1	3							ColorProc	List3											9	BUTTON1.png	BUTTON2.PNG	BUTTON3.png	BUTTON4.png	greenstar2.png	5	1	9				{button1}	0							0	TrialProc	ColorList							0	{button1}	Button	1	33	250633	0	{Button4}	3116	253749	Color
Wisconsin	1174	3	<?xml version="1.0"?>\n<Clock xmlns:dt="urn:schemas-microsoft-com:datatypes"><Description dt:dt="string">E-Prime Primary Realtime Clock</Description><StartTime><Timestamp dt:dt="int">0</Timestamp><DateUtc dt:dt="string">2023-01-14T09:19:37Z</DateUtc></StartTime><FrequencyChanges><FrequencyChange><Frequency dt:dt="r8">10000000</Frequency><Timestamp dt:dt="r8">24312500921768</Timestamp><Current dt:dt="r8">0</Current><DateUtc dt:dt="string">2023-01-14T09:19:37Z</DateUtc></FrequencyChange></FrequencyChanges></Clock>\n	Wisconsin-1174-3	60.014	1.0.0.257	1	-1306348481	Full	3.0.3.80	3.0.3.80	01-14-2023	1/14/2023 9:19:38 AM	17:19:38	Keyboard	Keyboard	Keyboard	3.0.3.82	Keyboard	2					1	1	1		BlockProc	List2	3								1	1	3							ColorProc	List3											10	BUTTON1.png	BUTTON2.PNG	BUTTON3.png	BUTTON4.png	greentriangle1.png	6	1	10				{button1}	0							0	TrialProc	ColorList							0	{button1}	Button	11	50	256349	0	{Button2}	1240	257589	Color
Wisconsin	1174	3	<?xml version="1.0"?>\n<Clock xmlns:dt="urn:schemas-microsoft-com:datatypes"><Description dt:dt="string">E-Prime Primary Realtime Clock</Description><StartTime><Timestamp dt:dt="int">0</Timestamp><DateUtc dt:dt="string">2023-01-14T09:19:37Z</DateUtc></StartTime><FrequencyChanges><FrequencyChange><Frequency dt:dt="r8">10000000</Frequency><Timestamp dt:dt="r8">24312500921768</Timestamp><Current dt:dt="r8">0</Current><DateUtc dt:dt="string">2023-01-14T09:19:37Z</DateUtc></FrequencyChange></FrequencyChanges></Clock>\n	Wisconsin-1174-3	60.014	1.0.0.257	1	-1306348481	Full	3.0.3.80	3.0.3.80	01-14-2023	1/14/2023 9:19:38 AM	17:19:38	Keyboard	Keyboard	Keyboard	3.0.3.82	Keyboard	3					2	1	2		BlockProc2	List2	1											3	1	1				NumberProc2	List4											1	Button1.png	Button2.png	Button3.png	Button4.png	Bluecross3.png							{button3}	0				1	1	1	0	TrialProc	NumberList2							1	{button3}	Button	10	33	260164	0	{Button3}	945	261109	number
Wisconsin	1174	3	<?xml version="1.0"?>\n<Clock xmlns:dt="urn:schemas-microsoft-com:datatypes"><Description dt:dt="string">E-Prime Primary Realtime Clock</Description><StartTime><Timestamp dt:dt="int">0</Timestamp><DateUtc dt:dt="string">2023-01-14T09:19:37Z</DateUtc></StartTime><FrequencyChanges><FrequencyChange><Frequency dt:dt="r8">10000000</Frequency><Timestamp dt:dt="r8">24312500921768</Timestamp><Current dt:dt="r8">0</Current><DateUtc dt:dt="string">2023-01-14T09:19:37Z</DateUtc></FrequencyChange></FrequencyChanges></Clock>\n	Wisconsin-1174-3	60.014	1.0.0.257	1	-1306348481	Full	3.0.3.80	3.0.3.80	01-14-2023	1/14/2023 9:19:38 AM	17:19:38	Keyboard	Keyboard	Keyboard	3.0.3.82	Keyboard	3					2	1	2		BlockProc2	List2	1											3	1	1				NumberProc2	List4											2	Button1.png	Button2.png	Button3.png	Button4.png	Bluestar4.png							{button2}	0				2	1	2	0	TrialProc	NumberList2							0	{button2}	Button	10	34	263697	0	{Button4}	1356	265053	number
Wisconsin	1174	3	<?xml version="1.0"?>\n<Clock xmlns:dt="urn:schemas-microsoft-com:datatypes"><Description dt:dt="string">E-Prime Primary Realtime Clock</Description><StartTime><Timestamp dt:dt="int">0</Timestamp><DateUtc dt:dt="string">2023-01-14T09:19:37Z</DateUtc></StartTime><FrequencyChanges><FrequencyChange><Frequency dt:dt="r8">10000000</Frequency><Timestamp dt:dt="r8">24312500921768</Timestamp><Current dt:dt="r8">0</Current><DateUtc dt:dt="string">2023-01-14T09:19:37Z</DateUtc></FrequencyChange></FrequencyChanges></Clock>\n	Wisconsin-1174-3	60.014	1.0.0.257	1	-1306348481	Full	3.0.3.80	3.0.3.80	01-14-2023	1/14/2023 9:19:38 AM	17:19:38	Keyboard	Keyboard	Keyboard	3.0.3.82	Keyboard	3					2	1	2		BlockProc2	List2	1											3	1	1				NumberProc2	List4											3	Button1.png	Button2.png	Button3.png	Button4.png	Bluetriangle4.png							{button2}	0				3	1	3	0	TrialProc	NumberList2							1	{button2}	Button	2	33	267629	0	{Button2}	1080	268709	number
Wisconsin	1174	3	<?xml version="1.0"?>\n<Clock xmlns:dt="urn:schemas-microsoft-com:datatypes"><Description dt:dt="string">E-Prime Primary Realtime Clock</Description><StartTime><Timestamp dt:dt="int">0</Timestamp><DateUtc dt:dt="string">2023-01-14T09:19:37Z</DateUtc></StartTime><FrequencyChanges><FrequencyChange><Frequency dt:dt="r8">10000000</Frequency><Timestamp dt:dt="r8">24312500921768</Timestamp><Current dt:dt="r8">0</Current><DateUtc dt:dt="string">2023-01-14T09:19:37Z</DateUtc></FrequencyChange></FrequencyChanges></Clock>\n	Wisconsin-1174-3	60.014	1.0.0.257	1	-1306348481	Full	3.0.3.80	3.0.3.80	01-14-2023	1/14/2023 9:19:38 AM	17:19:38	Keyboard	Keyboard	Keyboard	3.0.3.82	Keyboard	3					2	1	2		BlockProc2	List2	1											3	1	1				NumberProc2	List4											4	Button1.png	Button2.png	Button3.png	Button4.png	Greencross2.png							{button1}	0				4	1	4	0	TrialProc	NumberList2							1	{button1}	Button	9	33	271295	0	{Button1}	1126	272421	number
Wisconsin	1174	3	<?xml version="1.0"?>\n<Clock xmlns:dt="urn:schemas-microsoft-com:datatypes"><Description dt:dt="string">E-Prime Primary Realtime Clock</Description><StartTime><Timestamp dt:dt="int">0</Timestamp><DateUtc dt:dt="string">2023-01-14T09:19:37Z</DateUtc></StartTime><FrequencyChanges><FrequencyChange><Frequency dt:dt="r8">10000000</Frequency><Timestamp dt:dt="r8">24312500921768</Timestamp><Current dt:dt="r8">0</Current><DateUtc dt:dt="string">2023-01-14T09:19:37Z</DateUtc></FrequencyChange></FrequencyChanges></Clock>\n	Wisconsin-1174-3	60.014	1.0.0.257	1	-1306348481	Full	3.0.3.80	3.0.3.80	01-14-2023	1/14/2023 9:19:38 AM	17:19:38	Keyboard	Keyboard	Keyboard	3.0.3.82	Keyboard	3					2	1	2		BlockProc2	List2	1											3	1	1				NumberProc2	List4											5	Button1.png	Button2.png	Button3.png	Button4.png	Greenstar1.png							{button4}	0				5	1	5	0	TrialProc	NumberList2							1	{button4}	Button	1	33	274994	0	{Button4}	1131	276125	number
Wisconsin	1174	3	<?xml version="1.0"?>\n<Clock xmlns:dt="urn:schemas-microsoft-com:datatypes"><Description dt:dt="string">E-Prime Primary Realtime Clock</Description><StartTime><Timestamp dt:dt="int">0</Timestamp><DateUtc dt:dt="string">2023-01-14T09:19:37Z</DateUtc></StartTime><FrequencyChanges><FrequencyChange><Frequency dt:dt="r8">10000000</Frequency><Timestamp dt:dt="r8">24312500921768</Timestamp><Current dt:dt="r8">0</Current><DateUtc dt:dt="string">2023-01-14T09:19:37Z</DateUtc></FrequencyChange></FrequencyChanges></Clock>\n	Wisconsin-1174-3	60.014	1.0.0.257	1	-1306348481	Full	3.0.3.80	3.0.3.80	01-14-2023	1/14/2023 9:19:38 AM	17:19:38	Keyboard	Keyboard	Keyboard	3.0.3.82	Keyboard	3					2	1	2		BlockProc2	List2	1											3	1	1				NumberProc2	List4											6	Button1.png	Button2.png	Button3.png	Button4.png	Redstar1.png							{button4}	0				6	1	6	0	TrialProc	NumberList2							1	{button4}	Button	9	34	278710	0	{Button4}	1455	280165	number
Wisconsin	1174	3	<?xml version="1.0"?>\n<Clock xmlns:dt="urn:schemas-microsoft-com:datatypes"><Description dt:dt="string">E-Prime Primary Realtime Clock</Description><StartTime><Timestamp dt:dt="int">0</Timestamp><DateUtc dt:dt="string">2023-01-14T09:19:37Z</DateUtc></StartTime><FrequencyChanges><FrequencyChange><Frequency dt:dt="r8">10000000</Frequency><Timestamp dt:dt="r8">24312500921768</Timestamp><Current dt:dt="r8">0</Current><DateUtc dt:dt="string">2023-01-14T09:19:37Z</DateUtc></FrequencyChange></FrequencyChanges></Clock>\n	Wisconsin-1174-3	60.014	1.0.0.257	1	-1306348481	Full	3.0.3.80	3.0.3.80	01-14-2023	1/14/2023 9:19:38 AM	17:19:38	Keyboard	Keyboard	Keyboard	3.0.3.82	Keyboard	3					2	1	2		BlockProc2	List2	1											3	1	1				NumberProc2	List4											7	Button1.png	Button2.png	Button3.png	Button4.png	Redtriangle2.png							{button1}	0				7	1	7	0	TrialProc	NumberList2							0	{button1}	Button	10	33	282742	0	{Button4}	1439	284181	number
Wisconsin	1174	3	<?xml version="1.0"?>\n<Clock xmlns:dt="urn:schemas-microsoft-com:datatypes"><Description dt:dt="string">E-Prime Primary Realtime Clock</Description><StartTime><Timestamp dt:dt="int">0</Timestamp><DateUtc dt:dt="string">2023-01-14T09:19:37Z</DateUtc></StartTime><FrequencyChanges><FrequencyChange><Frequency dt:dt="r8">10000000</Frequency><Timestamp dt:dt="r8">24312500921768</Timestamp><Current dt:dt="r8">0</Current><DateUtc dt:dt="string">2023-01-14T09:19:37Z</DateUtc></FrequencyChange></FrequencyChanges></Clock>\n	Wisconsin-1174-3	60.014	1.0.0.257	1	-1306348481	Full	3.0.3.80	3.0.3.80	01-14-2023	1/14/2023 9:19:38 AM	17:19:38	Keyboard	Keyboard	Keyboard	3.0.3.82	Keyboard	3					2	1	2		BlockProc2	List2	1											3	1	1				NumberProc2	List4											8	Button1.png	Button2.png	Button3.png	Button4.png	yellowcircle4.png							{button2}	0				8	1	8	0	TrialProc	NumberList2							1	{button2}	Button	1	34	286758	0	{Button2}	1031	287789	number
Wisconsin	1174	3	<?xml version="1.0"?>\n<Clock xmlns:dt="urn:schemas-microsoft-com:datatypes"><Description dt:dt="string">E-Prime Primary Realtime Clock</Description><StartTime><Timestamp dt:dt="int">0</Timestamp><DateUtc dt:dt="string">2023-01-14T09:19:37Z</DateUtc></StartTime><FrequencyChanges><FrequencyChange><Frequency dt:dt="r8">10000000</Frequency><Timestamp dt:dt="r8">24312500921768</Timestamp><Current dt:dt="r8">0</Current><DateUtc dt:dt="string">2023-01-14T09:19:37Z</DateUtc></FrequencyChange></FrequencyChanges></Clock>\n	Wisconsin-1174-3	60.014	1.0.0.257	1	-1306348481	Full	3.0.3.80	3.0.3.80	01-14-2023	1/14/2023 9:19:38 AM	17:19:38	Keyboard	Keyboard	Keyboard	3.0.3.82	Keyboard	3					2	1	2		BlockProc2	List2	1											3	1	1				NumberProc2	List4											9	Button1.png	Button2.png	Button3.png	Button4.png	Yellowcross2.png							{button1}	0				9	1	9	0	TrialProc	NumberList2							0	{button1}	Button	2	33	290373	0	{Button2}	1840	292213	number
Wisconsin	1174	3	<?xml version="1.0"?>\n<Clock xmlns:dt="urn:schemas-microsoft-com:datatypes"><Description dt:dt="string">E-Prime Primary Realtime Clock</Description><StartTime><Timestamp dt:dt="int">0</Timestamp><DateUtc dt:dt="string">2023-01-14T09:19:37Z</DateUtc></StartTime><FrequencyChanges><FrequencyChange><Frequency dt:dt="r8">10000000</Frequency><Timestamp dt:dt="r8">24312500921768</Timestamp><Current dt:dt="r8">0</Current><DateUtc dt:dt="string">2023-01-14T09:19:37Z</DateUtc></FrequencyChange></FrequencyChanges></Clock>\n	Wisconsin-1174-3	60.014	1.0.0.257	1	-1306348481	Full	3.0.3.80	3.0.3.80	01-14-2023	1/14/2023 9:19:38 AM	17:19:38	Keyboard	Keyboard	Keyboard	3.0.3.82	Keyboard	3					2	1	2		BlockProc2	List2	1											3	1	1				NumberProc2	List4											10	Button1.png	Button2.png	Button3.png	Button4.png	Yellowtriangle2.png							{button3}	0				10	1	10	0	TrialProc	NumberList2							0	{button3}	Button	1	33	294789	0	{Button2}	1128	295917	number
Wisconsin	1174	3	<?xml version="1.0"?>\n<Clock xmlns:dt="urn:schemas-microsoft-com:datatypes"><Description dt:dt="string">E-Prime Primary Realtime Clock</Description><StartTime><Timestamp dt:dt="int">0</Timestamp><DateUtc dt:dt="string">2023-01-14T09:19:37Z</DateUtc></StartTime><FrequencyChanges><FrequencyChange><Frequency dt:dt="r8">10000000</Frequency><Timestamp dt:dt="r8">24312500921768</Timestamp><Current dt:dt="r8">0</Current><DateUtc dt:dt="string">2023-01-14T09:19:37Z</DateUtc></FrequencyChange></FrequencyChanges></Clock>\n	Wisconsin-1174-3	60.014	1.0.0.257	1	-1306348481	Full	3.0.3.80	3.0.3.80	01-14-2023	1/14/2023 9:19:38 AM	17:19:38	Keyboard	Keyboard	Keyboard	3.0.3.82	Keyboard	3					2	1	2		BlockProc2	List2	2											2	1	2				ShapeProc2	List4											1	Button1.png	Button2.png	Button3.png	Button4.png	Redstar3.png							{button4}	0							0	TrialProc	ShapeList2				6	1	1	0	{button4}	Button	10	33	298505	0	{Button3}	1052	299557	Shape
Wisconsin	1174	3	<?xml version="1.0"?>\n<Clock xmlns:dt="urn:schemas-microsoft-com:datatypes"><Description dt:dt="string">E-Prime Primary Realtime Clock</Description><StartTime><Timestamp dt:dt="int">0</Timestamp><DateUtc dt:dt="string">2023-01-14T09:19:37Z</DateUtc></StartTime><FrequencyChanges><FrequencyChange><Frequency dt:dt="r8">10000000</Frequency><Timestamp dt:dt="r8">24312500921768</Timestamp><Current dt:dt="r8">0</Current><DateUtc dt:dt="string">2023-01-14T09:19:37Z</DateUtc></FrequencyChange></FrequencyChanges></Clock>\n	Wisconsin-1174-3	60.014	1.0.0.257	1	-1306348481	Full	3.0.3.80	3.0.3.80	01-14-2023	1/14/2023 9:19:38 AM	17:19:38	Keyboard	Keyboard	Keyboard	3.0.3.82	Keyboard	3					2	1	2		BlockProc2	List2	2											2	1	2				ShapeProc2	List4											2	Button1.png	Button2.png	Button3.png	Button4.png	Yellowtriangle1.png							{button2}	0							0	TrialProc	ShapeList2				10	1	2	1	{button2}	Button	10	50	302154	0	{Button2}	1179	303333	Shape
Wisconsin	1174	3	<?xml version="1.0"?>\n<Clock xmlns:dt="urn:schemas-microsoft-com:datatypes"><Description dt:dt="string">E-Prime Primary Realtime Clock</Description><StartTime><Timestamp dt:dt="int">0</Timestamp><DateUtc dt:dt="string">2023-01-14T09:19:37Z</DateUtc></StartTime><FrequencyChanges><FrequencyChange><Frequency dt:dt="r8">10000000</Frequency><Timestamp dt:dt="r8">24312500921768</Timestamp><Current dt:dt="r8">0</Current><DateUtc dt:dt="string">2023-01-14T09:19:37Z</DateUtc></FrequencyChange></FrequencyChanges></Clock>\n	Wisconsin-1174-3	60.014	1.0.0.257	1	-1306348481	Full	3.0.3.80	3.0.3.80	01-14-2023	1/14/2023 9:19:38 AM	17:19:38	Keyboard	Keyboard	Keyboard	3.0.3.82	Keyboard	3					2	1	2		BlockProc2	List2	2											2	1	2				ShapeProc2	List4											3	Button1.png	Button2.png	Button3.png	Button4.png	Redcross2.png							{button3}	0							0	TrialProc	ShapeList2				5	1	3	1	{button3}	Button	1	34	305920	0	{Button3}	941	306861	Shape
Wisconsin	1174	3	<?xml version="1.0"?>\n<Clock xmlns:dt="urn:schemas-microsoft-com:datatypes"><Description dt:dt="string">E-Prime Primary Realtime Clock</Description><StartTime><Timestamp dt:dt="int">0</Timestamp><DateUtc dt:dt="string">2023-01-14T09:19:37Z</DateUtc></StartTime><FrequencyChanges><FrequencyChange><Frequency dt:dt="r8">10000000</Frequency><Timestamp dt:dt="r8">24312500921768</Timestamp><Current dt:dt="r8">0</Current><DateUtc dt:dt="string">2023-01-14T09:19:37Z</DateUtc></FrequencyChange></FrequencyChanges></Clock>\n	Wisconsin-1174-3	60.014	1.0.0.257	1	-1306348481	Full	3.0.3.80	3.0.3.80	01-14-2023	1/14/2023 9:19:38 AM	17:19:38	Keyboard	Keyboard	Keyboard	3.0.3.82	Keyboard	3					2	1	2		BlockProc2	List2	2											2	1	2				ShapeProc2	List4											4	Button1.png	Button2.png	Button3.png	Button4.png	Greenstar3.png							{button4}	0							0	TrialProc	ShapeList2				3	1	4	0	{button4}	Button	11	33	309435	0	{Button3}	938	310373	Shape
Wisconsin	1174	3	<?xml version="1.0"?>\n<Clock xmlns:dt="urn:schemas-microsoft-com:datatypes"><Description dt:dt="string">E-Prime Primary Realtime Clock</Description><StartTime><Timestamp dt:dt="int">0</Timestamp><DateUtc dt:dt="string">2023-01-14T09:19:37Z</DateUtc></StartTime><FrequencyChanges><FrequencyChange><Frequency dt:dt="r8">10000000</Frequency><Timestamp dt:dt="r8">24312500921768</Timestamp><Current dt:dt="r8">0</Current><DateUtc dt:dt="string">2023-01-14T09:19:37Z</DateUtc></FrequencyChange></FrequencyChanges></Clock>\n	Wisconsin-1174-3	60.014	1.0.0.257	1	-1306348481	Full	3.0.3.80	3.0.3.80	01-14-2023	1/14/2023 9:19:38 AM	17:19:38	Keyboard	Keyboard	Keyboard	3.0.3.82	Keyboard	3					2	1	2		BlockProc2	List2	2											2	1	2				ShapeProc2	List4											5	Button1.png	Button2.png	Button3.png	Button4.png	Bluecircle3.png							{button1}	0							0	TrialProc	ShapeList2				1	1	5	1	{button1}	Button	2	50	312968	0	{Button1}	1101	314069	Shape
Wisconsin	1174	3	<?xml version="1.0"?>\n<Clock xmlns:dt="urn:schemas-microsoft-com:datatypes"><Description dt:dt="string">E-Prime Primary Realtime Clock</Description><StartTime><Timestamp dt:dt="int">0</Timestamp><DateUtc dt:dt="string">2023-01-14T09:19:37Z</DateUtc></StartTime><FrequencyChanges><FrequencyChange><Frequency dt:dt="r8">10000000</Frequency><Timestamp dt:dt="r8">24312500921768</Timestamp><Current dt:dt="r8">0</Current><DateUtc dt:dt="string">2023-01-14T09:19:37Z</DateUtc></FrequencyChange></FrequencyChanges></Clock>\n	Wisconsin-1174-3	60.014	1.0.0.257	1	-1306348481	Full	3.0.3.80	3.0.3.80	01-14-2023	1/14/2023 9:19:38 AM	17:19:38	Keyboard	Keyboard	Keyboard	3.0.3.82	Keyboard	3					2	1	2		BlockProc2	List2	2											2	1	2				ShapeProc2	List4											6	Button1.png	Button2.png	Button3.png	Button4.png	Bluetriangle2.png							{button2}	0							0	TrialProc	ShapeList2				2	1	6	1	{button2}	Button	12	50	316667	0	{Button2}	922	317589	Shape
Wisconsin	1174	3	<?xml version="1.0"?>\n<Clock xmlns:dt="urn:schemas-microsoft-com:datatypes"><Description dt:dt="string">E-Prime Primary Realtime Clock</Description><StartTime><Timestamp dt:dt="int">0</Timestamp><DateUtc dt:dt="string">2023-01-14T09:19:37Z</DateUtc></StartTime><FrequencyChanges><FrequencyChange><Frequency dt:dt="r8">10000000</Frequency><Timestamp dt:dt="r8">24312500921768</Timestamp><Current dt:dt="r8">0</Current><DateUtc dt:dt="string">2023-01-14T09:19:37Z</DateUtc></FrequencyChange></FrequencyChanges></Clock>\n	Wisconsin-1174-3	60.014	1.0.0.257	1	-1306348481	Full	3.0.3.80	3.0.3.80	01-14-2023	1/14/2023 9:19:38 AM	17:19:38	Keyboard	Keyboard	Keyboard	3.0.3.82	Keyboard	3					2	1	2		BlockProc2	List2	2											2	1	2				ShapeProc2	List4											7	Button1.png	Button2.png	Button3.png	Button4.png	yellowcross4.png							{button3}	0							0	TrialProc	ShapeList2				8	1	7	1	{button3}	Button	10	50	320183	0	{Button3}	918	321101	Shape
Wisconsin	1174	3	<?xml version="1.0"?>\n<Clock xmlns:dt="urn:schemas-microsoft-com:datatypes"><Description dt:dt="string">E-Prime Primary Realtime Clock</Description><StartTime><Timestamp dt:dt="int">0</Timestamp><DateUtc dt:dt="string">2023-01-14T09:19:37Z</DateUtc></StartTime><FrequencyChanges><FrequencyChange><Frequency dt:dt="r8">10000000</Frequency><Timestamp dt:dt="r8">24312500921768</Timestamp><Current dt:dt="r8">0</Current><DateUtc dt:dt="string">2023-01-14T09:19:37Z</DateUtc></FrequencyChange></FrequencyChanges></Clock>\n	Wisconsin-1174-3	60.014	1.0.0.257	1	-1306348481	Full	3.0.3.80	3.0.3.80	01-14-2023	1/14/2023 9:19:38 AM	17:19:38	Keyboard	Keyboard	Keyboard	3.0.3.82	Keyboard	3					2	1	2		BlockProc2	List2	2											2	1	2				ShapeProc2	List4											8	Button1.png	Button2.png	Button3.png	Button4.png	Redtriangle3.png							{button2}	0							0	TrialProc	ShapeList2				7	1	8	0	{button2}	Button	10	33	323682	0	{Button3}	803	324485	Shape
Wisconsin	1174	3	<?xml version="1.0"?>\n<Clock xmlns:dt="urn:schemas-microsoft-com:datatypes"><Description dt:dt="string">E-Prime Primary Realtime Clock</Description><StartTime><Timestamp dt:dt="int">0</Timestamp><DateUtc dt:dt="string">2023-01-14T09:19:37Z</DateUtc></StartTime><FrequencyChanges><FrequencyChange><Frequency dt:dt="r8">10000000</Frequency><Timestamp dt:dt="r8">24312500921768</Timestamp><Current dt:dt="r8">0</Current><DateUtc dt:dt="string">2023-01-14T09:19:37Z</DateUtc></FrequencyChange></FrequencyChanges></Clock>\n	Wisconsin-1174-3	60.014	1.0.0.257	1	-1306348481	Full	3.0.3.80	3.0.3.80	01-14-2023	1/14/2023 9:19:38 AM	17:19:38	Keyboard	Keyboard	Keyboard	3.0.3.82	Keyboard	3					2	1	2		BlockProc2	List2	2											2	1	2				ShapeProc2	List4											9	Button1.png	Button2.png	Button3.png	Button4.png	Yellowstar2.png							{button4}	0							0	TrialProc	ShapeList2				9	1	9	1	{button4}	Button	10	33	327064	0	{Button4}	1413	328477	Shape
Wisconsin	1174	3	<?xml version="1.0"?>\n<Clock xmlns:dt="urn:schemas-microsoft-com:datatypes"><Description dt:dt="string">E-Prime Primary Realtime Clock</Description><StartTime><Timestamp dt:dt="int">0</Timestamp><DateUtc dt:dt="string">2023-01-14T09:19:37Z</DateUtc></StartTime><FrequencyChanges><FrequencyChange><Frequency dt:dt="r8">10000000</Frequency><Timestamp dt:dt="r8">24312500921768</Timestamp><Current dt:dt="r8">0</Current><DateUtc dt:dt="string">2023-01-14T09:19:37Z</DateUtc></FrequencyChange></FrequencyChanges></Clock>\n	Wisconsin-1174-3	60.014	1.0.0.257	1	-1306348481	Full	3.0.3.80	3.0.3.80	01-14-2023	1/14/2023 9:19:38 AM	17:19:38	Keyboard	Keyboard	Keyboard	3.0.3.82	Keyboard	3					2	1	2		BlockProc2	List2	2											2	1	2				ShapeProc2	List4											10	Button1.png	Button2.png	Button3.png	Button4.png	redcircle1.png							{button1}	0							0	TrialProc	ShapeList2				4	1	10	1	{button1}	Button	11	33	331063	0	{Button1}	1022	332085	Shape
Wisconsin	1174	3	<?xml version="1.0"?>\n<Clock xmlns:dt="urn:schemas-microsoft-com:datatypes"><Description dt:dt="string">E-Prime Primary Realtime Clock</Description><StartTime><Timestamp dt:dt="int">0</Timestamp><DateUtc dt:dt="string">2023-01-14T09:19:37Z</DateUtc></StartTime><FrequencyChanges><FrequencyChange><Frequency dt:dt="r8">10000000</Frequency><Timestamp dt:dt="r8">24312500921768</Timestamp><Current dt:dt="r8">0</Current><DateUtc dt:dt="string">2023-01-14T09:19:37Z</DateUtc></FrequencyChange></FrequencyChanges></Clock>\n	Wisconsin-1174-3	60.014	1.0.0.257	1	-1306348481	Full	3.0.3.80	3.0.3.80	01-14-2023	1/14/2023 9:19:38 AM	17:19:38	Keyboard	Keyboard	Keyboard	3.0.3.82	Keyboard	3					2	1	2		BlockProc2	List2	3											1	1	3				ColorProc2	List4											1	BUTTON1.png	BUTTON2.PNG	BUTTON3.png	BUTTON4.png	yellowcircle2.png				9	1	1	{Button2}	0							0	TrialProc	ColorList2							1	{Button2}	Button	10	33	334662	0	{Button2}	1775	336437	color
Wisconsin	1174	3	<?xml version="1.0"?>\n<Clock xmlns:dt="urn:schemas-microsoft-com:datatypes"><Description dt:dt="string">E-Prime Primary Realtime Clock</Description><StartTime><Timestamp dt:dt="int">0</Timestamp><DateUtc dt:dt="string">2023-01-14T09:19:37Z</DateUtc></StartTime><FrequencyChanges><FrequencyChange><Frequency dt:dt="r8">10000000</Frequency><Timestamp dt:dt="r8">24312500921768</Timestamp><Current dt:dt="r8">0</Current><DateUtc dt:dt="string">2023-01-14T09:19:37Z</DateUtc></FrequencyChange></FrequencyChanges></Clock>\n	Wisconsin-1174-3	60.014	1.0.0.257	1	-1306348481	Full	3.0.3.80	3.0.3.80	01-14-2023	1/14/2023 9:19:38 AM	17:19:38	Keyboard	Keyboard	Keyboard	3.0.3.82	Keyboard	3					2	1	2		BlockProc2	List2	3											1	1	3				ColorProc2	List4											2	BUTTON1.png	BUTTON2.PNG	BUTTON3.png	BUTTON4.png	bluestar3.png				2	1	2	{Button4}	0							0	TrialProc	ColorList2							0	{Button4}	Button	10	33	339011	0	{Button3}	1458	340469	color
Wisconsin	1174	3	<?xml version="1.0"?>\n<Clock xmlns:dt="urn:schemas-microsoft-com:datatypes"><Description dt:dt="string">E-Prime Primary Realtime Clock</Description><StartTime><Timestamp dt:dt="int">0</Timestamp><DateUtc dt:dt="string">2023-01-14T09:19:37Z</DateUtc></StartTime><FrequencyChanges><FrequencyChange><Frequency dt:dt="r8">10000000</Frequency><Timestamp dt:dt="r8">24312500921768</Timestamp><Current dt:dt="r8">0</Current><DateUtc dt:dt="string">2023-01-14T09:19:37Z</DateUtc></FrequencyChange></FrequencyChanges></Clock>\n	Wisconsin-1174-3	60.014	1.0.0.257	1	-1306348481	Full	3.0.3.80	3.0.3.80	01-14-2023	1/14/2023 9:19:38 AM	17:19:38	Keyboard	Keyboard	Keyboard	3.0.3.82	Keyboard	3					2	1	2		BlockProc2	List2	3											1	1	3				ColorProc2	List4											3	BUTTON1.png	BUTTON2.PNG	BUTTON3.png	BUTTON4.png	yellowtriangle3.png				10	1	3	{Button2}	0							0	TrialProc	ColorList2							1	{Button2}	Button	2	33	343044	0	{Button2}	809	343853	color
Wisconsin	1174	3	<?xml version="1.0"?>\n<Clock xmlns:dt="urn:schemas-microsoft-com:datatypes"><Description dt:dt="string">E-Prime Primary Realtime Clock</Description><StartTime><Timestamp dt:dt="int">0</Timestamp><DateUtc dt:dt="string">2023-01-14T09:19:37Z</DateUtc></StartTime><FrequencyChanges><FrequencyChange><Frequency dt:dt="r8">10000000</Frequency><Timestamp dt:dt="r8">24312500921768</Timestamp><Current dt:dt="r8">0</Current><DateUtc dt:dt="string">2023-01-14T09:19:37Z</DateUtc></FrequencyChange></FrequencyChanges></Clock>\n	Wisconsin-1174-3	60.014	1.0.0.257	1	-1306348481	Full	3.0.3.80	3.0.3.80	01-14-2023	1/14/2023 9:19:38 AM	17:19:38	Keyboard	Keyboard	Keyboard	3.0.3.82	Keyboard	3					2	1	2		BlockProc2	List2	3											1	1	3				ColorProc2	List4											4	BUTTON1.png	BUTTON2.PNG	BUTTON3.png	BUTTON4.png	Redcircle2.png				7	1	4	{Button3}	0							0	TrialProc	ColorList2							1	{Button3}	Button	2	33	346426	0	{Button3}	907	347333	color
Wisconsin	1174	3	<?xml version="1.0"?>\n<Clock xmlns:dt="urn:schemas-microsoft-com:datatypes"><Description dt:dt="string">E-Prime Primary Realtime Clock</Description><StartTime><Timestamp dt:dt="int">0</Timestamp><DateUtc dt:dt="string">2023-01-14T09:19:37Z</DateUtc></StartTime><FrequencyChanges><FrequencyChange><Frequency dt:dt="r8">10000000</Frequency><Timestamp dt:dt="r8">24312500921768</Timestamp><Current dt:dt="r8">0</Current><DateUtc dt:dt="string">2023-01-14T09:19:37Z</DateUtc></FrequencyChange></FrequencyChanges></Clock>\n	Wisconsin-1174-3	60.014	1.0.0.257	1	-1306348481	Full	3.0.3.80	3.0.3.80	01-14-2023	1/14/2023 9:19:38 AM	17:19:38	Keyboard	Keyboard	Keyboard	3.0.3.82	Keyboard	3					2	1	2		BlockProc2	List2	3											1	1	3				ColorProc2	List4											5	BUTTON1.png	BUTTON2.PNG	BUTTON3.png	BUTTON4.png	greencross4.png				4	1	5	{Button1}	0							0	TrialProc	ColorList2							0	{Button1}	Button	2	33	349909	0	{Button3}	1232	351141	color
Wisconsin	1174	3	<?xml version="1.0"?>\n<Clock xmlns:dt="urn:schemas-microsoft-com:datatypes"><Description dt:dt="string">E-Prime Primary Realtime Clock</Description><StartTime><Timestamp dt:dt="int">0</Timestamp><DateUtc dt:dt="string">2023-01-14T09:19:37Z</DateUtc></StartTime><FrequencyChanges><FrequencyChange><Frequency dt:dt="r8">10000000</Frequency><Timestamp dt:dt="r8">24312500921768</Timestamp><Current dt:dt="r8">0</Current><DateUtc dt:dt="string">2023-01-14T09:19:37Z</DateUtc></FrequencyChange></FrequencyChanges></Clock>\n	Wisconsin-1174-3	60.014	1.0.0.257	1	-1306348481	Full	3.0.3.80	3.0.3.80	01-14-2023	1/14/2023 9:19:38 AM	17:19:38	Keyboard	Keyboard	Keyboard	3.0.3.82	Keyboard	3					2	1	2		BlockProc2	List2	3											1	1	3				ColorProc2	List4											6	BUTTON1.png	BUTTON2.PNG	BUTTON3.png	BUTTON4.png	redstar4.png				8	1	6	{Button3}	0							0	TrialProc	ColorList2							1	{Button3}	Button	10	50	353741	0	{Button3}	832	354573	color
Wisconsin	1174	3	<?xml version="1.0"?>\n<Clock xmlns:dt="urn:schemas-microsoft-com:datatypes"><Description dt:dt="string">E-Prime Primary Realtime Clock</Description><StartTime><Timestamp dt:dt="int">0</Timestamp><DateUtc dt:dt="string">2023-01-14T09:19:37Z</DateUtc></StartTime><FrequencyChanges><FrequencyChange><Frequency dt:dt="r8">10000000</Frequency><Timestamp dt:dt="r8">24312500921768</Timestamp><Current dt:dt="r8">0</Current><DateUtc dt:dt="string">2023-01-14T09:19:37Z</DateUtc></FrequencyChange></FrequencyChanges></Clock>\n	Wisconsin-1174-3	60.014	1.0.0.257	1	-1306348481	Full	3.0.3.80	3.0.3.80	01-14-2023	1/14/2023 9:19:38 AM	17:19:38	Keyboard	Keyboard	Keyboard	3.0.3.82	Keyboard	3					2	1	2		BlockProc2	List2	3											1	1	3				ColorProc2	List4											7	BUTTON1.png	BUTTON2.PNG	BUTTON3.png	BUTTON4.png	bluecross1.png				1	1	7	{Button4}	0							0	TrialProc	ColorList2							0	{Button4}	Button	9	33	357157	0	{Button3}	1256	358413	color
Wisconsin	1174	3	<?xml version="1.0"?>\n<Clock xmlns:dt="urn:schemas-microsoft-com:datatypes"><Description dt:dt="string">E-Prime Primary Realtime Clock</Description><StartTime><Timestamp dt:dt="int">0</Timestamp><DateUtc dt:dt="string">2023-01-14T09:19:37Z</DateUtc></StartTime><FrequencyChanges><FrequencyChange><Frequency dt:dt="r8">10000000</Frequency><Timestamp dt:dt="r8">24312500921768</Timestamp><Current dt:dt="r8">0</Current><DateUtc dt:dt="string">2023-01-14T09:19:37Z</DateUtc></FrequencyChange></FrequencyChanges></Clock>\n	Wisconsin-1174-3	60.014	1.0.0.257	1	-1306348481	Full	3.0.3.80	3.0.3.80	01-14-2023	1/14/2023 9:19:38 AM	17:19:38	Keyboard	Keyboard	Keyboard	3.0.3.82	Keyboard	3					2	1	2		BlockProc2	List2	3											1	1	3				ColorProc2	List4											8	BUTTON1.png	BUTTON2.PNG	BUTTON3.png	BUTTON4.png	Greencircle1.png				3	1	8	{Button1}	0							0	TrialProc	ColorList2							1	{Button1}	Button	10	50	361006	0	{Button1}	895	361901	color
Wisconsin	1174	3	<?xml version="1.0"?>\n<Clock xmlns:dt="urn:schemas-microsoft-com:datatypes"><Description dt:dt="string">E-Prime Primary Realtime Clock</Description><StartTime><Timestamp dt:dt="int">0</Timestamp><DateUtc dt:dt="string">2023-01-14T09:19:37Z</DateUtc></StartTime><FrequencyChanges><FrequencyChange><Frequency dt:dt="r8">10000000</Frequency><Timestamp dt:dt="r8">24312500921768</Timestamp><Current dt:dt="r8">0</Current><DateUtc dt:dt="string">2023-01-14T09:19:37Z</DateUtc></FrequencyChange></FrequencyChanges></Clock>\n	Wisconsin-1174-3	60.014	1.0.0.257	1	-1306348481	Full	3.0.3.80	3.0.3.80	01-14-2023	1/14/2023 9:19:38 AM	17:19:38	Keyboard	Keyboard	Keyboard	3.0.3.82	Keyboard	3					2	1	2		BlockProc2	List2	3											1	1	3				ColorProc2	List4											9	BUTTON1.png	BUTTON2.PNG	BUTTON3.png	BUTTON4.png	greentriangle2.png				6	1	9	{Button1}	0							0	TrialProc	ColorList2							1	{Button1}	Button	2	33	364472	0	{Button1}	1341	365813	color
Wisconsin	1174	3	<?xml version="1.0"?>\n<Clock xmlns:dt="urn:schemas-microsoft-com:datatypes"><Description dt:dt="string">E-Prime Primary Realtime Clock</Description><StartTime><Timestamp dt:dt="int">0</Timestamp><DateUtc dt:dt="string">2023-01-14T09:19:37Z</DateUtc></StartTime><FrequencyChanges><FrequencyChange><Frequency dt:dt="r8">10000000</Frequency><Timestamp dt:dt="r8">24312500921768</Timestamp><Current dt:dt="r8">0</Current><DateUtc dt:dt="string">2023-01-14T09:19:37Z</DateUtc></FrequencyChange></FrequencyChanges></Clock>\n	Wisconsin-1174-3	60.014	1.0.0.257	1	-1306348481	Full	3.0.3.80	3.0.3.80	01-14-2023	1/14/2023 9:19:38 AM	17:19:38	Keyboard	Keyboard	Keyboard	3.0.3.82	Keyboard	3					2	1	2		BlockProc2	List2	3											1	1	3				ColorProc2	List4											10	BUTTON1.png	BUTTON2.PNG	BUTTON3.png	BUTTON4.png	greenstar4.png				5	1	10	{Button1}	0							0	TrialProc	ColorList2							1	{Button1}	Button	9	33	368388	0	{Button1}	1265	369653	color
