ExperimentName	Subject	Session	Clock.Information	DataFile.Basename	Display.RefreshRate	ExperimentVersion	Group	RandomSeed	RuntimeCapabilities	RuntimeVersion	RuntimeVersionExpected	SessionDate	SessionStartDateTimeUtc	SessionTime	Slide1.DEVICE	Slide2.DEVICE	Slide3.DEVICE	StudioVersion	Welcome.DEVICE	Block	GetReady.DEVICE	List1	List1.Cycle	List1.Sample	List2	List2.Cycle	List2.Sample	PracticeReady.DEVICE	Procedure[Block]	Running[Block]	Trial	CardIMG1[Trial]	CardIMG2[Trial]	CardIMG3[Trial]	CardIMG4[Trial]	CardStim[Trial]	Category	CorrectAnswer[Trial]	List3	List3.Cycle	List3.Sample	List4	List4.Cycle	List4.Sample	PracticeList	PracticeList.Cycle	PracticeList.Sample	Procedure[Trial]	Running[Trial]	Slide4.ACC	Slide4.CRESP	Slide4.DEVICE	Slide4.DurationError	Slide4.OnsetDelay	Slide4.OnsetTime	Slide4.OnsetToOnsetTime	Slide4.RESP	Slide4.RT	Slide4.RTTime	SubTrial	CardIMG1[SubTrial]	CardIMG2[SubTrial]	CardIMG3[SubTrial]	CardIMG4[SubTrial]	CardStim[SubTrial]	ColorList	ColorList.Cycle	ColorList.Sample	ColorList2	ColorList2.Cycle	ColorList2.Sample	CorrectAnswer[SubTrial]	NonPerseverativeError	NumberList	NumberList.Cycle	NumberList.Sample	NumberList2	NumberList2.Cycle	NumberList2.Sample	PerseverativeError	Procedure[SubTrial]	Running[SubTrial]	ShapeList	ShapeList.Cycle	ShapeList.Sample	ShapeList2	ShapeList2.Cycle	ShapeList2.Sample	Slide5.ACC	Slide5.CRESP	Slide5.DEVICE	Slide5.DurationError	Slide5.OnsetDelay	Slide5.OnsetTime	Slide5.OnsetToOnsetTime	Slide5.RESP	Slide5.RT	Slide5.RTTime	TrialType
Wisconsin	1163	4	<?xml version="1.0"?>\n<Clock xmlns:dt="urn:schemas-microsoft-com:datatypes"><Description dt:dt="string">E-Prime Primary Realtime Clock</Description><StartTime><Timestamp dt:dt="int">0</Timestamp><DateUtc dt:dt="string">2023-02-10T10:39:28Z</DateUtc></StartTime><FrequencyChanges><FrequencyChange><Frequency dt:dt="r8">10000000</Frequency><Timestamp dt:dt="r8">1898126476</Timestamp><Current dt:dt="r8">0</Current><DateUtc dt:dt="string">2023-02-10T10:39:28Z</DateUtc></FrequencyChange></FrequencyChanges></Clock>\n	Wisconsin-1163-4	60.012	1.0.0.260	1	1900782088	Full	3.0.3.80	3.0.3.80	02-10-2023		18:39:29	Keyboard	Keyboard	Keyboard	3.0.3.82	Keyboard	1	Keyboard	1	1	1				Keyboard	Practiceploc	List1	1	Button1.png	Button2.png	Button3.png	Button4.png	Greencircle3.png	顏色	{button1}							1	1	1	PracticeTrialProc	PracticeList	1	{button1}	Button	1	50	122842	0	{Button1}	2330	125172																																								
Wisconsin	1163	4	<?xml version="1.0"?>\n<Clock xmlns:dt="urn:schemas-microsoft-com:datatypes"><Description dt:dt="string">E-Prime Primary Realtime Clock</Description><StartTime><Timestamp dt:dt="int">0</Timestamp><DateUtc dt:dt="string">2023-02-10T10:39:28Z</DateUtc></StartTime><FrequencyChanges><FrequencyChange><Frequency dt:dt="r8">10000000</Frequency><Timestamp dt:dt="r8">1898126476</Timestamp><Current dt:dt="r8">0</Current><DateUtc dt:dt="string">2023-02-10T10:39:28Z</DateUtc></FrequencyChange></FrequencyChanges></Clock>\n	Wisconsin-1163-4	60.012	1.0.0.260	1	1900782088	Full	3.0.3.80	3.0.3.80	02-10-2023		18:39:29	Keyboard	Keyboard	Keyboard	3.0.3.82	Keyboard	1	Keyboard	1	1	1				Keyboard	Practiceploc	List1	2	Button1.png	Button2.png	Button3.png	Button4.png	Redstar2.png	顏色	{button3}							2	1	2	PracticeTrialProc	PracticeList	1	{button3}	Button	11	33	127807	0	{Button3}	2005	129812																																								
Wisconsin	1163	4	<?xml version="1.0"?>\n<Clock xmlns:dt="urn:schemas-microsoft-com:datatypes"><Description dt:dt="string">E-Prime Primary Realtime Clock</Description><StartTime><Timestamp dt:dt="int">0</Timestamp><DateUtc dt:dt="string">2023-02-10T10:39:28Z</DateUtc></StartTime><FrequencyChanges><FrequencyChange><Frequency dt:dt="r8">10000000</Frequency><Timestamp dt:dt="r8">1898126476</Timestamp><Current dt:dt="r8">0</Current><DateUtc dt:dt="string">2023-02-10T10:39:28Z</DateUtc></FrequencyChange></FrequencyChanges></Clock>\n	Wisconsin-1163-4	60.012	1.0.0.260	1	1900782088	Full	3.0.3.80	3.0.3.80	02-10-2023		18:39:29	Keyboard	Keyboard	Keyboard	3.0.3.82	Keyboard	1	Keyboard	1	1	1				Keyboard	Practiceploc	List1	3	Button1.png	Button2.png	Button3.png	Button4.png	Bluetriangle1.png	形狀	{button2}							3	1	3	PracticeTrialProc	PracticeList	1	{button2}	Button	1	50	132406	0	{Button2}	2566	134972																																								
Wisconsin	1163	4	<?xml version="1.0"?>\n<Clock xmlns:dt="urn:schemas-microsoft-com:datatypes"><Description dt:dt="string">E-Prime Primary Realtime Clock</Description><StartTime><Timestamp dt:dt="int">0</Timestamp><DateUtc dt:dt="string">2023-02-10T10:39:28Z</DateUtc></StartTime><FrequencyChanges><FrequencyChange><Frequency dt:dt="r8">10000000</Frequency><Timestamp dt:dt="r8">1898126476</Timestamp><Current dt:dt="r8">0</Current><DateUtc dt:dt="string">2023-02-10T10:39:28Z</DateUtc></FrequencyChange></FrequencyChanges></Clock>\n	Wisconsin-1163-4	60.012	1.0.0.260	1	1900782088	Full	3.0.3.80	3.0.3.80	02-10-2023		18:39:29	Keyboard	Keyboard	Keyboard	3.0.3.82	Keyboard	1	Keyboard	1	1	1				Keyboard	Practiceploc	List1	4	Button1.png	Button2.png	Button3.png	Button4.png	greenstar2.png	形狀	{Button4}							4	1	4	PracticeTrialProc	PracticeList	1	{Button4}	Button	1	33	137555	0	{Button4}	2481	140036																																								
Wisconsin	1163	4	<?xml version="1.0"?>\n<Clock xmlns:dt="urn:schemas-microsoft-com:datatypes"><Description dt:dt="string">E-Prime Primary Realtime Clock</Description><StartTime><Timestamp dt:dt="int">0</Timestamp><DateUtc dt:dt="string">2023-02-10T10:39:28Z</DateUtc></StartTime><FrequencyChanges><FrequencyChange><Frequency dt:dt="r8">10000000</Frequency><Timestamp dt:dt="r8">1898126476</Timestamp><Current dt:dt="r8">0</Current><DateUtc dt:dt="string">2023-02-10T10:39:28Z</DateUtc></FrequencyChange></FrequencyChanges></Clock>\n	Wisconsin-1163-4	60.012	1.0.0.260	1	1900782088	Full	3.0.3.80	3.0.3.80	02-10-2023		18:39:29	Keyboard	Keyboard	Keyboard	3.0.3.82	Keyboard	1	Keyboard	1	1	1				Keyboard	Practiceploc	List1	5	Button1.png	Button2.png	Button3.png	Button4.png	BlueCross4.png	圖案數目	{Button2}							5	1	5	PracticeTrialProc	PracticeList	1	{Button2}	Button	10	33	142620	0	{Button2}	3032	145652																																								
Wisconsin	1163	4	<?xml version="1.0"?>\n<Clock xmlns:dt="urn:schemas-microsoft-com:datatypes"><Description dt:dt="string">E-Prime Primary Realtime Clock</Description><StartTime><Timestamp dt:dt="int">0</Timestamp><DateUtc dt:dt="string">2023-02-10T10:39:28Z</DateUtc></StartTime><FrequencyChanges><FrequencyChange><Frequency dt:dt="r8">10000000</Frequency><Timestamp dt:dt="r8">1898126476</Timestamp><Current dt:dt="r8">0</Current><DateUtc dt:dt="string">2023-02-10T10:39:28Z</DateUtc></FrequencyChange></FrequencyChanges></Clock>\n	Wisconsin-1163-4	60.012	1.0.0.260	1	1900782088	Full	3.0.3.80	3.0.3.80	02-10-2023		18:39:29	Keyboard	Keyboard	Keyboard	3.0.3.82	Keyboard	1	Keyboard	1	1	1				Keyboard	Practiceploc	List1	6	Button1.png	Button2.png	Button3.png	Button4.png	yellowcircle2.png	圖案數目	{Button1}							6	1	6	PracticeTrialProc	PracticeList	1	{Button1}	Button	1	33	148236	0	{Button1}	2136	150372																																								
Wisconsin	1163	4	<?xml version="1.0"?>\n<Clock xmlns:dt="urn:schemas-microsoft-com:datatypes"><Description dt:dt="string">E-Prime Primary Realtime Clock</Description><StartTime><Timestamp dt:dt="int">0</Timestamp><DateUtc dt:dt="string">2023-02-10T10:39:28Z</DateUtc></StartTime><FrequencyChanges><FrequencyChange><Frequency dt:dt="r8">10000000</Frequency><Timestamp dt:dt="r8">1898126476</Timestamp><Current dt:dt="r8">0</Current><DateUtc dt:dt="string">2023-02-10T10:39:28Z</DateUtc></FrequencyChange></FrequencyChanges></Clock>\n	Wisconsin-1163-4	60.012	1.0.0.260	1	1900782088	Full	3.0.3.80	3.0.3.80	02-10-2023		18:39:29	Keyboard	Keyboard	Keyboard	3.0.3.82	Keyboard	2					2	1	1		BlockProc2	List2	1											1	1	1				ColorProc2	List4											1	BUTTON1.png	BUTTON2.PNG	BUTTON3.png	BUTTON4.png	redstar4.png				8	1	1	{Button3}	0							0	TrialProc	ColorList2							1	{Button3}	Button	1	33	160466	0	{Button3}	4298	164764	color
Wisconsin	1163	4	<?xml version="1.0"?>\n<Clock xmlns:dt="urn:schemas-microsoft-com:datatypes"><Description dt:dt="string">E-Prime Primary Realtime Clock</Description><StartTime><Timestamp dt:dt="int">0</Timestamp><DateUtc dt:dt="string">2023-02-10T10:39:28Z</DateUtc></StartTime><FrequencyChanges><FrequencyChange><Frequency dt:dt="r8">10000000</Frequency><Timestamp dt:dt="r8">1898126476</Timestamp><Current dt:dt="r8">0</Current><DateUtc dt:dt="string">2023-02-10T10:39:28Z</DateUtc></FrequencyChange></FrequencyChanges></Clock>\n	Wisconsin-1163-4	60.012	1.0.0.260	1	1900782088	Full	3.0.3.80	3.0.3.80	02-10-2023		18:39:29	Keyboard	Keyboard	Keyboard	3.0.3.82	Keyboard	2					2	1	1		BlockProc2	List2	1											1	1	1				ColorProc2	List4											2	BUTTON1.png	BUTTON2.PNG	BUTTON3.png	BUTTON4.png	greencross4.png				4	1	2	{Button1}	0							0	TrialProc	ColorList2							1	{Button1}	Button	1	33	167348	0	{Button1}	2216	169564	color
Wisconsin	1163	4	<?xml version="1.0"?>\n<Clock xmlns:dt="urn:schemas-microsoft-com:datatypes"><Description dt:dt="string">E-Prime Primary Realtime Clock</Description><StartTime><Timestamp dt:dt="int">0</Timestamp><DateUtc dt:dt="string">2023-02-10T10:39:28Z</DateUtc></StartTime><FrequencyChanges><FrequencyChange><Frequency dt:dt="r8">10000000</Frequency><Timestamp dt:dt="r8">1898126476</Timestamp><Current dt:dt="r8">0</Current><DateUtc dt:dt="string">2023-02-10T10:39:28Z</DateUtc></FrequencyChange></FrequencyChanges></Clock>\n	Wisconsin-1163-4	60.012	1.0.0.260	1	1900782088	Full	3.0.3.80	3.0.3.80	02-10-2023		18:39:29	Keyboard	Keyboard	Keyboard	3.0.3.82	Keyboard	2					2	1	1		BlockProc2	List2	1											1	1	1				ColorProc2	List4											3	BUTTON1.png	BUTTON2.PNG	BUTTON3.png	BUTTON4.png	bluestar3.png				2	1	3	{Button4}	0							0	TrialProc	ColorList2							1	{Button4}	Button	10	33	172130	0	{Button4}	1354	173484	color
Wisconsin	1163	4	<?xml version="1.0"?>\n<Clock xmlns:dt="urn:schemas-microsoft-com:datatypes"><Description dt:dt="string">E-Prime Primary Realtime Clock</Description><StartTime><Timestamp dt:dt="int">0</Timestamp><DateUtc dt:dt="string">2023-02-10T10:39:28Z</DateUtc></StartTime><FrequencyChanges><FrequencyChange><Frequency dt:dt="r8">10000000</Frequency><Timestamp dt:dt="r8">1898126476</Timestamp><Current dt:dt="r8">0</Current><DateUtc dt:dt="string">2023-02-10T10:39:28Z</DateUtc></FrequencyChange></FrequencyChanges></Clock>\n	Wisconsin-1163-4	60.012	1.0.0.260	1	1900782088	Full	3.0.3.80	3.0.3.80	02-10-2023		18:39:29	Keyboard	Keyboard	Keyboard	3.0.3.82	Keyboard	2					2	1	1		BlockProc2	List2	1											1	1	1				ColorProc2	List4											4	BUTTON1.png	BUTTON2.PNG	BUTTON3.png	BUTTON4.png	Greencircle1.png				3	1	4	{Button1}	0							0	TrialProc	ColorList2							1	{Button1}	Button	10	50	176079	0	{Button1}	1301	177380	color
Wisconsin	1163	4	<?xml version="1.0"?>\n<Clock xmlns:dt="urn:schemas-microsoft-com:datatypes"><Description dt:dt="string">E-Prime Primary Realtime Clock</Description><StartTime><Timestamp dt:dt="int">0</Timestamp><DateUtc dt:dt="string">2023-02-10T10:39:28Z</DateUtc></StartTime><FrequencyChanges><FrequencyChange><Frequency dt:dt="r8">10000000</Frequency><Timestamp dt:dt="r8">1898126476</Timestamp><Current dt:dt="r8">0</Current><DateUtc dt:dt="string">2023-02-10T10:39:28Z</DateUtc></FrequencyChange></FrequencyChanges></Clock>\n	Wisconsin-1163-4	60.012	1.0.0.260	1	1900782088	Full	3.0.3.80	3.0.3.80	02-10-2023		18:39:29	Keyboard	Keyboard	Keyboard	3.0.3.82	Keyboard	2					2	1	1		BlockProc2	List2	1											1	1	1				ColorProc2	List4											5	BUTTON1.png	BUTTON2.PNG	BUTTON3.png	BUTTON4.png	bluecross1.png				1	1	5	{Button4}	0							0	TrialProc	ColorList2							0	{Button4}	Button	1	50	179978	0	{Button3}	1866	181844	color
Wisconsin	1163	4	<?xml version="1.0"?>\n<Clock xmlns:dt="urn:schemas-microsoft-com:datatypes"><Description dt:dt="string">E-Prime Primary Realtime Clock</Description><StartTime><Timestamp dt:dt="int">0</Timestamp><DateUtc dt:dt="string">2023-02-10T10:39:28Z</DateUtc></StartTime><FrequencyChanges><FrequencyChange><Frequency dt:dt="r8">10000000</Frequency><Timestamp dt:dt="r8">1898126476</Timestamp><Current dt:dt="r8">0</Current><DateUtc dt:dt="string">2023-02-10T10:39:28Z</DateUtc></FrequencyChange></FrequencyChanges></Clock>\n	Wisconsin-1163-4	60.012	1.0.0.260	1	1900782088	Full	3.0.3.80	3.0.3.80	02-10-2023		18:39:29	Keyboard	Keyboard	Keyboard	3.0.3.82	Keyboard	2					2	1	1		BlockProc2	List2	1											1	1	1				ColorProc2	List4											6	BUTTON1.png	BUTTON2.PNG	BUTTON3.png	BUTTON4.png	yellowcircle2.png				9	1	6	{Button2}	0							0	TrialProc	ColorList2							0	{Button2}	Button	2	49	184443	0	{Button1}	2433	186876	color
Wisconsin	1163	4	<?xml version="1.0"?>\n<Clock xmlns:dt="urn:schemas-microsoft-com:datatypes"><Description dt:dt="string">E-Prime Primary Realtime Clock</Description><StartTime><Timestamp dt:dt="int">0</Timestamp><DateUtc dt:dt="string">2023-02-10T10:39:28Z</DateUtc></StartTime><FrequencyChanges><FrequencyChange><Frequency dt:dt="r8">10000000</Frequency><Timestamp dt:dt="r8">1898126476</Timestamp><Current dt:dt="r8">0</Current><DateUtc dt:dt="string">2023-02-10T10:39:28Z</DateUtc></FrequencyChange></FrequencyChanges></Clock>\n	Wisconsin-1163-4	60.012	1.0.0.260	1	1900782088	Full	3.0.3.80	3.0.3.80	02-10-2023		18:39:29	Keyboard	Keyboard	Keyboard	3.0.3.82	Keyboard	2					2	1	1		BlockProc2	List2	1											1	1	1				ColorProc2	List4											7	BUTTON1.png	BUTTON2.PNG	BUTTON3.png	BUTTON4.png	yellowtriangle3.png				10	1	7	{Button2}	0							0	TrialProc	ColorList2							1	{Button2}	Button	2	33	189459	0	{Button2}	1217	190676	color
Wisconsin	1163	4	<?xml version="1.0"?>\n<Clock xmlns:dt="urn:schemas-microsoft-com:datatypes"><Description dt:dt="string">E-Prime Primary Realtime Clock</Description><StartTime><Timestamp dt:dt="int">0</Timestamp><DateUtc dt:dt="string">2023-02-10T10:39:28Z</DateUtc></StartTime><FrequencyChanges><FrequencyChange><Frequency dt:dt="r8">10000000</Frequency><Timestamp dt:dt="r8">1898126476</Timestamp><Current dt:dt="r8">0</Current><DateUtc dt:dt="string">2023-02-10T10:39:28Z</DateUtc></FrequencyChange></FrequencyChanges></Clock>\n	Wisconsin-1163-4	60.012	1.0.0.260	1	1900782088	Full	3.0.3.80	3.0.3.80	02-10-2023		18:39:29	Keyboard	Keyboard	Keyboard	3.0.3.82	Keyboard	2					2	1	1		BlockProc2	List2	1											1	1	1				ColorProc2	List4											8	BUTTON1.png	BUTTON2.PNG	BUTTON3.png	BUTTON4.png	greentriangle2.png				6	1	8	{Button1}	0							0	TrialProc	ColorList2							0	{Button1}	Button	10	33	193241	0	{Button2}	2667	195908	color
Wisconsin	1163	4	<?xml version="1.0"?>\n<Clock xmlns:dt="urn:schemas-microsoft-com:datatypes"><Description dt:dt="string">E-Prime Primary Realtime Clock</Description><StartTime><Timestamp dt:dt="int">0</Timestamp><DateUtc dt:dt="string">2023-02-10T10:39:28Z</DateUtc></StartTime><FrequencyChanges><FrequencyChange><Frequency dt:dt="r8">10000000</Frequency><Timestamp dt:dt="r8">1898126476</Timestamp><Current dt:dt="r8">0</Current><DateUtc dt:dt="string">2023-02-10T10:39:28Z</DateUtc></FrequencyChange></FrequencyChanges></Clock>\n	Wisconsin-1163-4	60.012	1.0.0.260	1	1900782088	Full	3.0.3.80	3.0.3.80	02-10-2023		18:39:29	Keyboard	Keyboard	Keyboard	3.0.3.82	Keyboard	2					2	1	1		BlockProc2	List2	1											1	1	1				ColorProc2	List4											9	BUTTON1.png	BUTTON2.PNG	BUTTON3.png	BUTTON4.png	Redcircle2.png				7	1	9	{Button3}	0							0	TrialProc	ColorList2							0	{Button3}	Button	2	33	198490	0	{Button1}	1482	199972	color
Wisconsin	1163	4	<?xml version="1.0"?>\n<Clock xmlns:dt="urn:schemas-microsoft-com:datatypes"><Description dt:dt="string">E-Prime Primary Realtime Clock</Description><StartTime><Timestamp dt:dt="int">0</Timestamp><DateUtc dt:dt="string">2023-02-10T10:39:28Z</DateUtc></StartTime><FrequencyChanges><FrequencyChange><Frequency dt:dt="r8">10000000</Frequency><Timestamp dt:dt="r8">1898126476</Timestamp><Current dt:dt="r8">0</Current><DateUtc dt:dt="string">2023-02-10T10:39:28Z</DateUtc></FrequencyChange></FrequencyChanges></Clock>\n	Wisconsin-1163-4	60.012	1.0.0.260	1	1900782088	Full	3.0.3.80	3.0.3.80	02-10-2023		18:39:29	Keyboard	Keyboard	Keyboard	3.0.3.82	Keyboard	2					2	1	1		BlockProc2	List2	1											1	1	1				ColorProc2	List4											10	BUTTON1.png	BUTTON2.PNG	BUTTON3.png	BUTTON4.png	greenstar4.png				5	1	10	{Button1}	0							0	TrialProc	ColorList2							0	{Button1}	Button	1	33	202556	0	{Button4}	2520	205076	color
Wisconsin	1163	4	<?xml version="1.0"?>\n<Clock xmlns:dt="urn:schemas-microsoft-com:datatypes"><Description dt:dt="string">E-Prime Primary Realtime Clock</Description><StartTime><Timestamp dt:dt="int">0</Timestamp><DateUtc dt:dt="string">2023-02-10T10:39:28Z</DateUtc></StartTime><FrequencyChanges><FrequencyChange><Frequency dt:dt="r8">10000000</Frequency><Timestamp dt:dt="r8">1898126476</Timestamp><Current dt:dt="r8">0</Current><DateUtc dt:dt="string">2023-02-10T10:39:28Z</DateUtc></FrequencyChange></FrequencyChanges></Clock>\n	Wisconsin-1163-4	60.012	1.0.0.260	1	1900782088	Full	3.0.3.80	3.0.3.80	02-10-2023		18:39:29	Keyboard	Keyboard	Keyboard	3.0.3.82	Keyboard	2					2	1	1		BlockProc2	List2	2											2	1	2				ShapeProc2	List4											1	Button1.png	Button2.png	Button3.png	Button4.png	Greenstar3.png							{button4}	0							0	TrialProc	ShapeList2				3	1	1	0	{button4}	Button	10	50	207671	0	{Button1}	2861	210532	Shape
Wisconsin	1163	4	<?xml version="1.0"?>\n<Clock xmlns:dt="urn:schemas-microsoft-com:datatypes"><Description dt:dt="string">E-Prime Primary Realtime Clock</Description><StartTime><Timestamp dt:dt="int">0</Timestamp><DateUtc dt:dt="string">2023-02-10T10:39:28Z</DateUtc></StartTime><FrequencyChanges><FrequencyChange><Frequency dt:dt="r8">10000000</Frequency><Timestamp dt:dt="r8">1898126476</Timestamp><Current dt:dt="r8">0</Current><DateUtc dt:dt="string">2023-02-10T10:39:28Z</DateUtc></FrequencyChange></FrequencyChanges></Clock>\n	Wisconsin-1163-4	60.012	1.0.0.260	1	1900782088	Full	3.0.3.80	3.0.3.80	02-10-2023		18:39:29	Keyboard	Keyboard	Keyboard	3.0.3.82	Keyboard	2					2	1	1		BlockProc2	List2	2											2	1	2				ShapeProc2	List4											2	Button1.png	Button2.png	Button3.png	Button4.png	Redtriangle3.png							{button2}	0							0	TrialProc	ShapeList2				7	1	2	1	{button2}	Button	2	49	213136	0	{Button2}	1452	214588	Shape
Wisconsin	1163	4	<?xml version="1.0"?>\n<Clock xmlns:dt="urn:schemas-microsoft-com:datatypes"><Description dt:dt="string">E-Prime Primary Realtime Clock</Description><StartTime><Timestamp dt:dt="int">0</Timestamp><DateUtc dt:dt="string">2023-02-10T10:39:28Z</DateUtc></StartTime><FrequencyChanges><FrequencyChange><Frequency dt:dt="r8">10000000</Frequency><Timestamp dt:dt="r8">1898126476</Timestamp><Current dt:dt="r8">0</Current><DateUtc dt:dt="string">2023-02-10T10:39:28Z</DateUtc></FrequencyChange></FrequencyChanges></Clock>\n	Wisconsin-1163-4	60.012	1.0.0.260	1	1900782088	Full	3.0.3.80	3.0.3.80	02-10-2023		18:39:29	Keyboard	Keyboard	Keyboard	3.0.3.82	Keyboard	2					2	1	1		BlockProc2	List2	2											2	1	2				ShapeProc2	List4											3	Button1.png	Button2.png	Button3.png	Button4.png	Redcross2.png							{button3}	0							0	TrialProc	ShapeList2				5	1	3	1	{button3}	Button	1	33	217169	0	{Button3}	1299	218468	Shape
Wisconsin	1163	4	<?xml version="1.0"?>\n<Clock xmlns:dt="urn:schemas-microsoft-com:datatypes"><Description dt:dt="string">E-Prime Primary Realtime Clock</Description><StartTime><Timestamp dt:dt="int">0</Timestamp><DateUtc dt:dt="string">2023-02-10T10:39:28Z</DateUtc></StartTime><FrequencyChanges><FrequencyChange><Frequency dt:dt="r8">10000000</Frequency><Timestamp dt:dt="r8">1898126476</Timestamp><Current dt:dt="r8">0</Current><DateUtc dt:dt="string">2023-02-10T10:39:28Z</DateUtc></FrequencyChange></FrequencyChanges></Clock>\n	Wisconsin-1163-4	60.012	1.0.0.260	1	1900782088	Full	3.0.3.80	3.0.3.80	02-10-2023		18:39:29	Keyboard	Keyboard	Keyboard	3.0.3.82	Keyboard	2					2	1	1		BlockProc2	List2	2											2	1	2				ShapeProc2	List4											4	Button1.png	Button2.png	Button3.png	Button4.png	Redstar3.png							{button4}	0							0	TrialProc	ShapeList2				6	1	4	1	{button4}	Button	10	33	221051	0	{Button4}	1777	222828	Shape
Wisconsin	1163	4	<?xml version="1.0"?>\n<Clock xmlns:dt="urn:schemas-microsoft-com:datatypes"><Description dt:dt="string">E-Prime Primary Realtime Clock</Description><StartTime><Timestamp dt:dt="int">0</Timestamp><DateUtc dt:dt="string">2023-02-10T10:39:28Z</DateUtc></StartTime><FrequencyChanges><FrequencyChange><Frequency dt:dt="r8">10000000</Frequency><Timestamp dt:dt="r8">1898126476</Timestamp><Current dt:dt="r8">0</Current><DateUtc dt:dt="string">2023-02-10T10:39:28Z</DateUtc></FrequencyChange></FrequencyChanges></Clock>\n	Wisconsin-1163-4	60.012	1.0.0.260	1	1900782088	Full	3.0.3.80	3.0.3.80	02-10-2023		18:39:29	Keyboard	Keyboard	Keyboard	3.0.3.82	Keyboard	2					2	1	1		BlockProc2	List2	2											2	1	2				ShapeProc2	List4											5	Button1.png	Button2.png	Button3.png	Button4.png	yellowcross4.png							{button3}	0							0	TrialProc	ShapeList2				8	1	5	1	{button3}	Button	9	50	225417	0	{Button3}	1723	227140	Shape
Wisconsin	1163	4	<?xml version="1.0"?>\n<Clock xmlns:dt="urn:schemas-microsoft-com:datatypes"><Description dt:dt="string">E-Prime Primary Realtime Clock</Description><StartTime><Timestamp dt:dt="int">0</Timestamp><DateUtc dt:dt="string">2023-02-10T10:39:28Z</DateUtc></StartTime><FrequencyChanges><FrequencyChange><Frequency dt:dt="r8">10000000</Frequency><Timestamp dt:dt="r8">1898126476</Timestamp><Current dt:dt="r8">0</Current><DateUtc dt:dt="string">2023-02-10T10:39:28Z</DateUtc></FrequencyChange></FrequencyChanges></Clock>\n	Wisconsin-1163-4	60.012	1.0.0.260	1	1900782088	Full	3.0.3.80	3.0.3.80	02-10-2023		18:39:29	Keyboard	Keyboard	Keyboard	3.0.3.82	Keyboard	2					2	1	1		BlockProc2	List2	2											2	1	2				ShapeProc2	List4											6	Button1.png	Button2.png	Button3.png	Button4.png	Bluetriangle2.png							{button2}	0							0	TrialProc	ShapeList2				2	1	6	1	{button2}	Button	9	33	229716	0	{Button2}	1712	231428	Shape
Wisconsin	1163	4	<?xml version="1.0"?>\n<Clock xmlns:dt="urn:schemas-microsoft-com:datatypes"><Description dt:dt="string">E-Prime Primary Realtime Clock</Description><StartTime><Timestamp dt:dt="int">0</Timestamp><DateUtc dt:dt="string">2023-02-10T10:39:28Z</DateUtc></StartTime><FrequencyChanges><FrequencyChange><Frequency dt:dt="r8">10000000</Frequency><Timestamp dt:dt="r8">1898126476</Timestamp><Current dt:dt="r8">0</Current><DateUtc dt:dt="string">2023-02-10T10:39:28Z</DateUtc></FrequencyChange></FrequencyChanges></Clock>\n	Wisconsin-1163-4	60.012	1.0.0.260	1	1900782088	Full	3.0.3.80	3.0.3.80	02-10-2023		18:39:29	Keyboard	Keyboard	Keyboard	3.0.3.82	Keyboard	2					2	1	1		BlockProc2	List2	2											2	1	2				ShapeProc2	List4											7	Button1.png	Button2.png	Button3.png	Button4.png	Bluecircle3.png							{button1}	0							0	TrialProc	ShapeList2				1	1	7	1	{button1}	Button	1	33	234015	0	{Button1}	1277	235292	Shape
Wisconsin	1163	4	<?xml version="1.0"?>\n<Clock xmlns:dt="urn:schemas-microsoft-com:datatypes"><Description dt:dt="string">E-Prime Primary Realtime Clock</Description><StartTime><Timestamp dt:dt="int">0</Timestamp><DateUtc dt:dt="string">2023-02-10T10:39:28Z</DateUtc></StartTime><FrequencyChanges><FrequencyChange><Frequency dt:dt="r8">10000000</Frequency><Timestamp dt:dt="r8">1898126476</Timestamp><Current dt:dt="r8">0</Current><DateUtc dt:dt="string">2023-02-10T10:39:28Z</DateUtc></FrequencyChange></FrequencyChanges></Clock>\n	Wisconsin-1163-4	60.012	1.0.0.260	1	1900782088	Full	3.0.3.80	3.0.3.80	02-10-2023		18:39:29	Keyboard	Keyboard	Keyboard	3.0.3.82	Keyboard	2					2	1	1		BlockProc2	List2	2											2	1	2				ShapeProc2	List4											8	Button1.png	Button2.png	Button3.png	Button4.png	Yellowstar2.png							{button4}	0							0	TrialProc	ShapeList2				9	1	8	1	{button4}	Button	9	33	237864	0	{Button4}	1924	239788	Shape
Wisconsin	1163	4	<?xml version="1.0"?>\n<Clock xmlns:dt="urn:schemas-microsoft-com:datatypes"><Description dt:dt="string">E-Prime Primary Realtime Clock</Description><StartTime><Timestamp dt:dt="int">0</Timestamp><DateUtc dt:dt="string">2023-02-10T10:39:28Z</DateUtc></StartTime><FrequencyChanges><FrequencyChange><Frequency dt:dt="r8">10000000</Frequency><Timestamp dt:dt="r8">1898126476</Timestamp><Current dt:dt="r8">0</Current><DateUtc dt:dt="string">2023-02-10T10:39:28Z</DateUtc></FrequencyChange></FrequencyChanges></Clock>\n	Wisconsin-1163-4	60.012	1.0.0.260	1	1900782088	Full	3.0.3.80	3.0.3.80	02-10-2023		18:39:29	Keyboard	Keyboard	Keyboard	3.0.3.82	Keyboard	2					2	1	1		BlockProc2	List2	2											2	1	2				ShapeProc2	List4											9	Button1.png	Button2.png	Button3.png	Button4.png	redcircle1.png							{button1}	0							0	TrialProc	ShapeList2				4	1	9	1	{button1}	Button	9	33	242363	0	{Button1}	2353	244716	Shape
Wisconsin	1163	4	<?xml version="1.0"?>\n<Clock xmlns:dt="urn:schemas-microsoft-com:datatypes"><Description dt:dt="string">E-Prime Primary Realtime Clock</Description><StartTime><Timestamp dt:dt="int">0</Timestamp><DateUtc dt:dt="string">2023-02-10T10:39:28Z</DateUtc></StartTime><FrequencyChanges><FrequencyChange><Frequency dt:dt="r8">10000000</Frequency><Timestamp dt:dt="r8">1898126476</Timestamp><Current dt:dt="r8">0</Current><DateUtc dt:dt="string">2023-02-10T10:39:28Z</DateUtc></FrequencyChange></FrequencyChanges></Clock>\n	Wisconsin-1163-4	60.012	1.0.0.260	1	1900782088	Full	3.0.3.80	3.0.3.80	02-10-2023		18:39:29	Keyboard	Keyboard	Keyboard	3.0.3.82	Keyboard	2					2	1	1		BlockProc2	List2	2											2	1	2				ShapeProc2	List4											10	Button1.png	Button2.png	Button3.png	Button4.png	Yellowtriangle1.png							{button2}	0							0	TrialProc	ShapeList2				10	1	10	1	{button2}	Button	2	49	247311	0	{Button2}	1197	248508	Shape
Wisconsin	1163	4	<?xml version="1.0"?>\n<Clock xmlns:dt="urn:schemas-microsoft-com:datatypes"><Description dt:dt="string">E-Prime Primary Realtime Clock</Description><StartTime><Timestamp dt:dt="int">0</Timestamp><DateUtc dt:dt="string">2023-02-10T10:39:28Z</DateUtc></StartTime><FrequencyChanges><FrequencyChange><Frequency dt:dt="r8">10000000</Frequency><Timestamp dt:dt="r8">1898126476</Timestamp><Current dt:dt="r8">0</Current><DateUtc dt:dt="string">2023-02-10T10:39:28Z</DateUtc></FrequencyChange></FrequencyChanges></Clock>\n	Wisconsin-1163-4	60.012	1.0.0.260	1	1900782088	Full	3.0.3.80	3.0.3.80	02-10-2023		18:39:29	Keyboard	Keyboard	Keyboard	3.0.3.82	Keyboard	2					2	1	1		BlockProc2	List2	3											3	1	3				NumberProc2	List4											1	Button1.png	Button2.png	Button3.png	Button4.png	Bluecross3.png							{button3}	0				1	1	1	0	TrialProc	NumberList2							1	{button3}	Button	2	49	251110	0	{Button3}	1414	252524	number
Wisconsin	1163	4	<?xml version="1.0"?>\n<Clock xmlns:dt="urn:schemas-microsoft-com:datatypes"><Description dt:dt="string">E-Prime Primary Realtime Clock</Description><StartTime><Timestamp dt:dt="int">0</Timestamp><DateUtc dt:dt="string">2023-02-10T10:39:28Z</DateUtc></StartTime><FrequencyChanges><FrequencyChange><Frequency dt:dt="r8">10000000</Frequency><Timestamp dt:dt="r8">1898126476</Timestamp><Current dt:dt="r8">0</Current><DateUtc dt:dt="string">2023-02-10T10:39:28Z</DateUtc></FrequencyChange></FrequencyChanges></Clock>\n	Wisconsin-1163-4	60.012	1.0.0.260	1	1900782088	Full	3.0.3.80	3.0.3.80	02-10-2023		18:39:29	Keyboard	Keyboard	Keyboard	3.0.3.82	Keyboard	2					2	1	1		BlockProc2	List2	3											3	1	3				NumberProc2	List4											2	Button1.png	Button2.png	Button3.png	Button4.png	Bluestar4.png							{button2}	0				2	1	2	0	TrialProc	NumberList2							0	{button2}	Button	10	33	255109	0	{Button4}	1943	257052	number
Wisconsin	1163	4	<?xml version="1.0"?>\n<Clock xmlns:dt="urn:schemas-microsoft-com:datatypes"><Description dt:dt="string">E-Prime Primary Realtime Clock</Description><StartTime><Timestamp dt:dt="int">0</Timestamp><DateUtc dt:dt="string">2023-02-10T10:39:28Z</DateUtc></StartTime><FrequencyChanges><FrequencyChange><Frequency dt:dt="r8">10000000</Frequency><Timestamp dt:dt="r8">1898126476</Timestamp><Current dt:dt="r8">0</Current><DateUtc dt:dt="string">2023-02-10T10:39:28Z</DateUtc></FrequencyChange></FrequencyChanges></Clock>\n	Wisconsin-1163-4	60.012	1.0.0.260	1	1900782088	Full	3.0.3.80	3.0.3.80	02-10-2023		18:39:29	Keyboard	Keyboard	Keyboard	3.0.3.82	Keyboard	2					2	1	1		BlockProc2	List2	3											3	1	3				NumberProc2	List4											3	Button1.png	Button2.png	Button3.png	Button4.png	Bluetriangle4.png							{button2}	0				3	1	3	0	TrialProc	NumberList2							1	{button2}	Button	9	33	259625	0	{Button2}	1835	261460	number
Wisconsin	1163	4	<?xml version="1.0"?>\n<Clock xmlns:dt="urn:schemas-microsoft-com:datatypes"><Description dt:dt="string">E-Prime Primary Realtime Clock</Description><StartTime><Timestamp dt:dt="int">0</Timestamp><DateUtc dt:dt="string">2023-02-10T10:39:28Z</DateUtc></StartTime><FrequencyChanges><FrequencyChange><Frequency dt:dt="r8">10000000</Frequency><Timestamp dt:dt="r8">1898126476</Timestamp><Current dt:dt="r8">0</Current><DateUtc dt:dt="string">2023-02-10T10:39:28Z</DateUtc></FrequencyChange></FrequencyChanges></Clock>\n	Wisconsin-1163-4	60.012	1.0.0.260	1	1900782088	Full	3.0.3.80	3.0.3.80	02-10-2023		18:39:29	Keyboard	Keyboard	Keyboard	3.0.3.82	Keyboard	2					2	1	1		BlockProc2	List2	3											3	1	3				NumberProc2	List4											4	Button1.png	Button2.png	Button3.png	Button4.png	Greencross2.png							{button1}	0				4	1	4	0	TrialProc	NumberList2							0	{button1}	Button	10	33	264041	0	{Button3}	3243	267284	number
Wisconsin	1163	4	<?xml version="1.0"?>\n<Clock xmlns:dt="urn:schemas-microsoft-com:datatypes"><Description dt:dt="string">E-Prime Primary Realtime Clock</Description><StartTime><Timestamp dt:dt="int">0</Timestamp><DateUtc dt:dt="string">2023-02-10T10:39:28Z</DateUtc></StartTime><FrequencyChanges><FrequencyChange><Frequency dt:dt="r8">10000000</Frequency><Timestamp dt:dt="r8">1898126476</Timestamp><Current dt:dt="r8">0</Current><DateUtc dt:dt="string">2023-02-10T10:39:28Z</DateUtc></FrequencyChange></FrequencyChanges></Clock>\n	Wisconsin-1163-4	60.012	1.0.0.260	1	1900782088	Full	3.0.3.80	3.0.3.80	02-10-2023		18:39:29	Keyboard	Keyboard	Keyboard	3.0.3.82	Keyboard	2					2	1	1		BlockProc2	List2	3											3	1	3				NumberProc2	List4											5	Button1.png	Button2.png	Button3.png	Button4.png	Greenstar1.png							{button4}	0				5	1	5	0	TrialProc	NumberList2							1	{button4}	Button	9	50	269873	0	{Button4}	2187	272060	number
Wisconsin	1163	4	<?xml version="1.0"?>\n<Clock xmlns:dt="urn:schemas-microsoft-com:datatypes"><Description dt:dt="string">E-Prime Primary Realtime Clock</Description><StartTime><Timestamp dt:dt="int">0</Timestamp><DateUtc dt:dt="string">2023-02-10T10:39:28Z</DateUtc></StartTime><FrequencyChanges><FrequencyChange><Frequency dt:dt="r8">10000000</Frequency><Timestamp dt:dt="r8">1898126476</Timestamp><Current dt:dt="r8">0</Current><DateUtc dt:dt="string">2023-02-10T10:39:28Z</DateUtc></FrequencyChange></FrequencyChanges></Clock>\n	Wisconsin-1163-4	60.012	1.0.0.260	1	1900782088	Full	3.0.3.80	3.0.3.80	02-10-2023		18:39:29	Keyboard	Keyboard	Keyboard	3.0.3.82	Keyboard	2					2	1	1		BlockProc2	List2	3											3	1	3				NumberProc2	List4											6	Button1.png	Button2.png	Button3.png	Button4.png	Redstar1.png							{button4}	0				6	1	6	0	TrialProc	NumberList2							1	{button4}	Button	10	33	274638	0	{Button4}	1342	275980	number
Wisconsin	1163	4	<?xml version="1.0"?>\n<Clock xmlns:dt="urn:schemas-microsoft-com:datatypes"><Description dt:dt="string">E-Prime Primary Realtime Clock</Description><StartTime><Timestamp dt:dt="int">0</Timestamp><DateUtc dt:dt="string">2023-02-10T10:39:28Z</DateUtc></StartTime><FrequencyChanges><FrequencyChange><Frequency dt:dt="r8">10000000</Frequency><Timestamp dt:dt="r8">1898126476</Timestamp><Current dt:dt="r8">0</Current><DateUtc dt:dt="string">2023-02-10T10:39:28Z</DateUtc></FrequencyChange></FrequencyChanges></Clock>\n	Wisconsin-1163-4	60.012	1.0.0.260	1	1900782088	Full	3.0.3.80	3.0.3.80	02-10-2023		18:39:29	Keyboard	Keyboard	Keyboard	3.0.3.82	Keyboard	2					2	1	1		BlockProc2	List2	3											3	1	3				NumberProc2	List4											7	Button1.png	Button2.png	Button3.png	Button4.png	Redtriangle2.png							{button1}	0				7	1	7	0	TrialProc	NumberList2							0	{button1}	Button	10	33	278554	0	{Button2}	4186	282740	number
Wisconsin	1163	4	<?xml version="1.0"?>\n<Clock xmlns:dt="urn:schemas-microsoft-com:datatypes"><Description dt:dt="string">E-Prime Primary Realtime Clock</Description><StartTime><Timestamp dt:dt="int">0</Timestamp><DateUtc dt:dt="string">2023-02-10T10:39:28Z</DateUtc></StartTime><FrequencyChanges><FrequencyChange><Frequency dt:dt="r8">10000000</Frequency><Timestamp dt:dt="r8">1898126476</Timestamp><Current dt:dt="r8">0</Current><DateUtc dt:dt="string">2023-02-10T10:39:28Z</DateUtc></FrequencyChange></FrequencyChanges></Clock>\n	Wisconsin-1163-4	60.012	1.0.0.260	1	1900782088	Full	3.0.3.80	3.0.3.80	02-10-2023		18:39:29	Keyboard	Keyboard	Keyboard	3.0.3.82	Keyboard	2					2	1	1		BlockProc2	List2	3											3	1	3				NumberProc2	List4											8	Button1.png	Button2.png	Button3.png	Button4.png	yellowcircle4.png							{button2}	0				8	1	8	0	TrialProc	NumberList2							1	{button2}	Button	10	49	285335	0	{Button2}	2013	287348	number
Wisconsin	1163	4	<?xml version="1.0"?>\n<Clock xmlns:dt="urn:schemas-microsoft-com:datatypes"><Description dt:dt="string">E-Prime Primary Realtime Clock</Description><StartTime><Timestamp dt:dt="int">0</Timestamp><DateUtc dt:dt="string">2023-02-10T10:39:28Z</DateUtc></StartTime><FrequencyChanges><FrequencyChange><Frequency dt:dt="r8">10000000</Frequency><Timestamp dt:dt="r8">1898126476</Timestamp><Current dt:dt="r8">0</Current><DateUtc dt:dt="string">2023-02-10T10:39:28Z</DateUtc></FrequencyChange></FrequencyChanges></Clock>\n	Wisconsin-1163-4	60.012	1.0.0.260	1	1900782088	Full	3.0.3.80	3.0.3.80	02-10-2023		18:39:29	Keyboard	Keyboard	Keyboard	3.0.3.82	Keyboard	2					2	1	1		BlockProc2	List2	3											3	1	3				NumberProc2	List4											9	Button1.png	Button2.png	Button3.png	Button4.png	Yellowcross2.png							{button1}	0				9	1	9	0	TrialProc	NumberList2							1	{button1}	Button	10	33	289934	0	{Button1}	4662	294596	number
Wisconsin	1163	4	<?xml version="1.0"?>\n<Clock xmlns:dt="urn:schemas-microsoft-com:datatypes"><Description dt:dt="string">E-Prime Primary Realtime Clock</Description><StartTime><Timestamp dt:dt="int">0</Timestamp><DateUtc dt:dt="string">2023-02-10T10:39:28Z</DateUtc></StartTime><FrequencyChanges><FrequencyChange><Frequency dt:dt="r8">10000000</Frequency><Timestamp dt:dt="r8">1898126476</Timestamp><Current dt:dt="r8">0</Current><DateUtc dt:dt="string">2023-02-10T10:39:28Z</DateUtc></FrequencyChange></FrequencyChanges></Clock>\n	Wisconsin-1163-4	60.012	1.0.0.260	1	1900782088	Full	3.0.3.80	3.0.3.80	02-10-2023		18:39:29	Keyboard	Keyboard	Keyboard	3.0.3.82	Keyboard	2					2	1	1		BlockProc2	List2	3											3	1	3				NumberProc2	List4											10	Button1.png	Button2.png	Button3.png	Button4.png	Yellowtriangle2.png							{button3}	0				10	1	10	0	TrialProc	NumberList2							0	{button3}	Button	2	50	297199	0	{Button2}	2629	299828	number
Wisconsin	1163	4	<?xml version="1.0"?>\n<Clock xmlns:dt="urn:schemas-microsoft-com:datatypes"><Description dt:dt="string">E-Prime Primary Realtime Clock</Description><StartTime><Timestamp dt:dt="int">0</Timestamp><DateUtc dt:dt="string">2023-02-10T10:39:28Z</DateUtc></StartTime><FrequencyChanges><FrequencyChange><Frequency dt:dt="r8">10000000</Frequency><Timestamp dt:dt="r8">1898126476</Timestamp><Current dt:dt="r8">0</Current><DateUtc dt:dt="string">2023-02-10T10:39:28Z</DateUtc></FrequencyChange></FrequencyChanges></Clock>\n	Wisconsin-1163-4	60.012	1.0.0.260	1	1900782088	Full	3.0.3.80	3.0.3.80	02-10-2023		18:39:29	Keyboard	Keyboard	Keyboard	3.0.3.82	Keyboard	3					1	1	2		BlockProc	List2	1								1	1	1							ColorProc	List3											1	BUTTON1.png	BUTTON2.PNG	BUTTON3.png	BUTTON4.png	yellowstar3.png	10	1	1				{button2}	0							0	TrialProc	ColorList							0	{button2}	Button	1	34	302415	0	{Button3}	2341	304756	Color
Wisconsin	1163	4	<?xml version="1.0"?>\n<Clock xmlns:dt="urn:schemas-microsoft-com:datatypes"><Description dt:dt="string">E-Prime Primary Realtime Clock</Description><StartTime><Timestamp dt:dt="int">0</Timestamp><DateUtc dt:dt="string">2023-02-10T10:39:28Z</DateUtc></StartTime><FrequencyChanges><FrequencyChange><Frequency dt:dt="r8">10000000</Frequency><Timestamp dt:dt="r8">1898126476</Timestamp><Current dt:dt="r8">0</Current><DateUtc dt:dt="string">2023-02-10T10:39:28Z</DateUtc></FrequencyChange></FrequencyChanges></Clock>\n	Wisconsin-1163-4	60.012	1.0.0.260	1	1900782088	Full	3.0.3.80	3.0.3.80	02-10-2023		18:39:29	Keyboard	Keyboard	Keyboard	3.0.3.82	Keyboard	3					1	1	2		BlockProc	List2	1								1	1	1							ColorProc	List3											2	BUTTON1.png	BUTTON2.PNG	BUTTON3.png	BUTTON4.png	greencircle3.png	4	1	2				{button1}	0							0	TrialProc	ColorList							0	{button1}	Button	1	50	307347	0	{Button3}	4097	311444	Color
Wisconsin	1163	4	<?xml version="1.0"?>\n<Clock xmlns:dt="urn:schemas-microsoft-com:datatypes"><Description dt:dt="string">E-Prime Primary Realtime Clock</Description><StartTime><Timestamp dt:dt="int">0</Timestamp><DateUtc dt:dt="string">2023-02-10T10:39:28Z</DateUtc></StartTime><FrequencyChanges><FrequencyChange><Frequency dt:dt="r8">10000000</Frequency><Timestamp dt:dt="r8">1898126476</Timestamp><Current dt:dt="r8">0</Current><DateUtc dt:dt="string">2023-02-10T10:39:28Z</DateUtc></FrequencyChange></FrequencyChanges></Clock>\n	Wisconsin-1163-4	60.012	1.0.0.260	1	1900782088	Full	3.0.3.80	3.0.3.80	02-10-2023		18:39:29	Keyboard	Keyboard	Keyboard	3.0.3.82	Keyboard	3					1	1	2		BlockProc	List2	1								1	1	1							ColorProc	List3											3	BUTTON1.png	BUTTON2.PNG	BUTTON3.png	BUTTON4.png	bluecross2.png	2	1	3				{button4}	0							0	TrialProc	ColorList							0	{button4}	Button	10	33	314028	0	{Button1}	2536	316564	Color
Wisconsin	1163	4	<?xml version="1.0"?>\n<Clock xmlns:dt="urn:schemas-microsoft-com:datatypes"><Description dt:dt="string">E-Prime Primary Realtime Clock</Description><StartTime><Timestamp dt:dt="int">0</Timestamp><DateUtc dt:dt="string">2023-02-10T10:39:28Z</DateUtc></StartTime><FrequencyChanges><FrequencyChange><Frequency dt:dt="r8">10000000</Frequency><Timestamp dt:dt="r8">1898126476</Timestamp><Current dt:dt="r8">0</Current><DateUtc dt:dt="string">2023-02-10T10:39:28Z</DateUtc></FrequencyChange></FrequencyChanges></Clock>\n	Wisconsin-1163-4	60.012	1.0.0.260	1	1900782088	Full	3.0.3.80	3.0.3.80	02-10-2023		18:39:29	Keyboard	Keyboard	Keyboard	3.0.3.82	Keyboard	3					1	1	2		BlockProc	List2	1								1	1	1							ColorProc	List3											4	BUTTON1.png	BUTTON2.PNG	BUTTON3.png	BUTTON4.png	bluecircle1.png	1	1	4				{button4}	0							0	TrialProc	ColorList							1	{button4}	Button	9	33	319144	0	{Button4}	4132	323276	Color
Wisconsin	1163	4	<?xml version="1.0"?>\n<Clock xmlns:dt="urn:schemas-microsoft-com:datatypes"><Description dt:dt="string">E-Prime Primary Realtime Clock</Description><StartTime><Timestamp dt:dt="int">0</Timestamp><DateUtc dt:dt="string">2023-02-10T10:39:28Z</DateUtc></StartTime><FrequencyChanges><FrequencyChange><Frequency dt:dt="r8">10000000</Frequency><Timestamp dt:dt="r8">1898126476</Timestamp><Current dt:dt="r8">0</Current><DateUtc dt:dt="string">2023-02-10T10:39:28Z</DateUtc></FrequencyChange></FrequencyChanges></Clock>\n	Wisconsin-1163-4	60.012	1.0.0.260	1	1900782088	Full	3.0.3.80	3.0.3.80	02-10-2023		18:39:29	Keyboard	Keyboard	Keyboard	3.0.3.82	Keyboard	3					1	1	2		BlockProc	List2	1								1	1	1							ColorProc	List3											5	BUTTON1.png	BUTTON2.PNG	BUTTON3.png	BUTTON4.png	yellowcircle1.png	9	1	5				{button2}	0							0	TrialProc	ColorList							0	{button2}	Button	10	50	325859	5015		0	0	Color
Wisconsin	1163	4	<?xml version="1.0"?>\n<Clock xmlns:dt="urn:schemas-microsoft-com:datatypes"><Description dt:dt="string">E-Prime Primary Realtime Clock</Description><StartTime><Timestamp dt:dt="int">0</Timestamp><DateUtc dt:dt="string">2023-02-10T10:39:28Z</DateUtc></StartTime><FrequencyChanges><FrequencyChange><Frequency dt:dt="r8">10000000</Frequency><Timestamp dt:dt="r8">1898126476</Timestamp><Current dt:dt="r8">0</Current><DateUtc dt:dt="string">2023-02-10T10:39:28Z</DateUtc></FrequencyChange></FrequencyChanges></Clock>\n	Wisconsin-1163-4	60.012	1.0.0.260	1	1900782088	Full	3.0.3.80	3.0.3.80	02-10-2023		18:39:29	Keyboard	Keyboard	Keyboard	3.0.3.82	Keyboard	3					1	1	2		BlockProc	List2	1								1	1	1							ColorProc	List3											6	BUTTON1.png	BUTTON2.PNG	BUTTON3.png	BUTTON4.png	greentriangle3.png	7	1	6				{button1}	0							0	TrialProc	ColorList							0	{button1}	Button	2	49	333440	0	{Button3}	2292	335732	Color
Wisconsin	1163	4	<?xml version="1.0"?>\n<Clock xmlns:dt="urn:schemas-microsoft-com:datatypes"><Description dt:dt="string">E-Prime Primary Realtime Clock</Description><StartTime><Timestamp dt:dt="int">0</Timestamp><DateUtc dt:dt="string">2023-02-10T10:39:28Z</DateUtc></StartTime><FrequencyChanges><FrequencyChange><Frequency dt:dt="r8">10000000</Frequency><Timestamp dt:dt="r8">1898126476</Timestamp><Current dt:dt="r8">0</Current><DateUtc dt:dt="string">2023-02-10T10:39:28Z</DateUtc></FrequencyChange></FrequencyChanges></Clock>\n	Wisconsin-1163-4	60.012	1.0.0.260	1	1900782088	Full	3.0.3.80	3.0.3.80	02-10-2023		18:39:29	Keyboard	Keyboard	Keyboard	3.0.3.82	Keyboard	3					1	1	2		BlockProc	List2	1								1	1	1							ColorProc	List3											7	BUTTON1.png	BUTTON2.PNG	BUTTON3.png	BUTTON4.png	greenstar2.png	5	1	7				{button1}	0							0	TrialProc	ColorList							0	{button1}	Button	2	49	338322	0	{Button4}	1538	339860	Color
Wisconsin	1163	4	<?xml version="1.0"?>\n<Clock xmlns:dt="urn:schemas-microsoft-com:datatypes"><Description dt:dt="string">E-Prime Primary Realtime Clock</Description><StartTime><Timestamp dt:dt="int">0</Timestamp><DateUtc dt:dt="string">2023-02-10T10:39:28Z</DateUtc></StartTime><FrequencyChanges><FrequencyChange><Frequency dt:dt="r8">10000000</Frequency><Timestamp dt:dt="r8">1898126476</Timestamp><Current dt:dt="r8">0</Current><DateUtc dt:dt="string">2023-02-10T10:39:28Z</DateUtc></FrequencyChange></FrequencyChanges></Clock>\n	Wisconsin-1163-4	60.012	1.0.0.260	1	1900782088	Full	3.0.3.80	3.0.3.80	02-10-2023		18:39:29	Keyboard	Keyboard	Keyboard	3.0.3.82	Keyboard	3					1	1	2		BlockProc	List2	1								1	1	1							ColorProc	List3											8	BUTTON1.png	BUTTON2.PNG	BUTTON3.png	BUTTON4.png	bluetriangle3.png	3	1	8				{button4}	0							0	TrialProc	ColorList							0	{button4}	Button	10	33	342438	0	{Button2}	1598	344036	Color
Wisconsin	1163	4	<?xml version="1.0"?>\n<Clock xmlns:dt="urn:schemas-microsoft-com:datatypes"><Description dt:dt="string">E-Prime Primary Realtime Clock</Description><StartTime><Timestamp dt:dt="int">0</Timestamp><DateUtc dt:dt="string">2023-02-10T10:39:28Z</DateUtc></StartTime><FrequencyChanges><FrequencyChange><Frequency dt:dt="r8">10000000</Frequency><Timestamp dt:dt="r8">1898126476</Timestamp><Current dt:dt="r8">0</Current><DateUtc dt:dt="string">2023-02-10T10:39:28Z</DateUtc></FrequencyChange></FrequencyChanges></Clock>\n	Wisconsin-1163-4	60.012	1.0.0.260	1	1900782088	Full	3.0.3.80	3.0.3.80	02-10-2023		18:39:29	Keyboard	Keyboard	Keyboard	3.0.3.82	Keyboard	3					1	1	2		BlockProc	List2	1								1	1	1							ColorProc	List3											9	BUTTON1.png	BUTTON2.PNG	BUTTON3.png	BUTTON4.png	redcircle3.png	8	1	9				{button3}	0							0	TrialProc	ColorList							1	{button3}	Button	10	33	346620	0	{Button3}	2032	348652	Color
Wisconsin	1163	4	<?xml version="1.0"?>\n<Clock xmlns:dt="urn:schemas-microsoft-com:datatypes"><Description dt:dt="string">E-Prime Primary Realtime Clock</Description><StartTime><Timestamp dt:dt="int">0</Timestamp><DateUtc dt:dt="string">2023-02-10T10:39:28Z</DateUtc></StartTime><FrequencyChanges><FrequencyChange><Frequency dt:dt="r8">10000000</Frequency><Timestamp dt:dt="r8">1898126476</Timestamp><Current dt:dt="r8">0</Current><DateUtc dt:dt="string">2023-02-10T10:39:28Z</DateUtc></FrequencyChange></FrequencyChanges></Clock>\n	Wisconsin-1163-4	60.012	1.0.0.260	1	1900782088	Full	3.0.3.80	3.0.3.80	02-10-2023		18:39:29	Keyboard	Keyboard	Keyboard	3.0.3.82	Keyboard	3					1	1	2		BlockProc	List2	1								1	1	1							ColorProc	List3											10	BUTTON1.png	BUTTON2.PNG	BUTTON3.png	BUTTON4.png	greentriangle1.png	6	1	10				{button1}	0							0	TrialProc	ColorList							0	{button1}	Button	10	50	351253	0	{Button2}	1567	352820	Color
Wisconsin	1163	4	<?xml version="1.0"?>\n<Clock xmlns:dt="urn:schemas-microsoft-com:datatypes"><Description dt:dt="string">E-Prime Primary Realtime Clock</Description><StartTime><Timestamp dt:dt="int">0</Timestamp><DateUtc dt:dt="string">2023-02-10T10:39:28Z</DateUtc></StartTime><FrequencyChanges><FrequencyChange><Frequency dt:dt="r8">10000000</Frequency><Timestamp dt:dt="r8">1898126476</Timestamp><Current dt:dt="r8">0</Current><DateUtc dt:dt="string">2023-02-10T10:39:28Z</DateUtc></FrequencyChange></FrequencyChanges></Clock>\n	Wisconsin-1163-4	60.012	1.0.0.260	1	1900782088	Full	3.0.3.80	3.0.3.80	02-10-2023		18:39:29	Keyboard	Keyboard	Keyboard	3.0.3.82	Keyboard	3					1	1	2		BlockProc	List2	2								2	1	2							ShapeProc	List3											1	Button1.png	Button2.png	Button3.png	Button4.png	Greencross1.png							{Button3}	0							0	TrialProc	ShapeList	3	1	1				0	{Button3}	Button	9	33	355402	0	{Button4}	2650	358052	Shape
Wisconsin	1163	4	<?xml version="1.0"?>\n<Clock xmlns:dt="urn:schemas-microsoft-com:datatypes"><Description dt:dt="string">E-Prime Primary Realtime Clock</Description><StartTime><Timestamp dt:dt="int">0</Timestamp><DateUtc dt:dt="string">2023-02-10T10:39:28Z</DateUtc></StartTime><FrequencyChanges><FrequencyChange><Frequency dt:dt="r8">10000000</Frequency><Timestamp dt:dt="r8">1898126476</Timestamp><Current dt:dt="r8">0</Current><DateUtc dt:dt="string">2023-02-10T10:39:28Z</DateUtc></FrequencyChange></FrequencyChanges></Clock>\n	Wisconsin-1163-4	60.012	1.0.0.260	1	1900782088	Full	3.0.3.80	3.0.3.80	02-10-2023		18:39:29	Keyboard	Keyboard	Keyboard	3.0.3.82	Keyboard	3					1	1	2		BlockProc	List2	2								2	1	2							ShapeProc	List3											2	Button1.png	Button2.png	Button3.png	Button4.png	Bluecross4.png							{Button3}	0							0	TrialProc	ShapeList	2	1	2				1	{Button3}	Button	10	49	360650	0	{Button3}	3034	363684	Shape
Wisconsin	1163	4	<?xml version="1.0"?>\n<Clock xmlns:dt="urn:schemas-microsoft-com:datatypes"><Description dt:dt="string">E-Prime Primary Realtime Clock</Description><StartTime><Timestamp dt:dt="int">0</Timestamp><DateUtc dt:dt="string">2023-02-10T10:39:28Z</DateUtc></StartTime><FrequencyChanges><FrequencyChange><Frequency dt:dt="r8">10000000</Frequency><Timestamp dt:dt="r8">1898126476</Timestamp><Current dt:dt="r8">0</Current><DateUtc dt:dt="string">2023-02-10T10:39:28Z</DateUtc></FrequencyChange></FrequencyChanges></Clock>\n	Wisconsin-1163-4	60.012	1.0.0.260	1	1900782088	Full	3.0.3.80	3.0.3.80	02-10-2023		18:39:29	Keyboard	Keyboard	Keyboard	3.0.3.82	Keyboard	3					1	1	2		BlockProc	List2	2								2	1	2							ShapeProc	List3											3	Button1.png	Button2.png	Button3.png	Button4.png	Bluecircle2.png							{Button1}	0							0	TrialProc	ShapeList	1	1	3				1	{Button1}	Button	9	33	366249	0	{Button1}	2907	369156	Shape
Wisconsin	1163	4	<?xml version="1.0"?>\n<Clock xmlns:dt="urn:schemas-microsoft-com:datatypes"><Description dt:dt="string">E-Prime Primary Realtime Clock</Description><StartTime><Timestamp dt:dt="int">0</Timestamp><DateUtc dt:dt="string">2023-02-10T10:39:28Z</DateUtc></StartTime><FrequencyChanges><FrequencyChange><Frequency dt:dt="r8">10000000</Frequency><Timestamp dt:dt="r8">1898126476</Timestamp><Current dt:dt="r8">0</Current><DateUtc dt:dt="string">2023-02-10T10:39:28Z</DateUtc></FrequencyChange></FrequencyChanges></Clock>\n	Wisconsin-1163-4	60.012	1.0.0.260	1	1900782088	Full	3.0.3.80	3.0.3.80	02-10-2023		18:39:29	Keyboard	Keyboard	Keyboard	3.0.3.82	Keyboard	3					1	1	2		BlockProc	List2	2								2	1	2							ShapeProc	List3											4	Button1.png	Button2.png	Button3.png	Button4.png	Greentriangle4.png							{Button2}	0							0	TrialProc	ShapeList	4	1	4				1	{Button2}	Button	10	33	371731	0	{Button2}	1097	372828	Shape
Wisconsin	1163	4	<?xml version="1.0"?>\n<Clock xmlns:dt="urn:schemas-microsoft-com:datatypes"><Description dt:dt="string">E-Prime Primary Realtime Clock</Description><StartTime><Timestamp dt:dt="int">0</Timestamp><DateUtc dt:dt="string">2023-02-10T10:39:28Z</DateUtc></StartTime><FrequencyChanges><FrequencyChange><Frequency dt:dt="r8">10000000</Frequency><Timestamp dt:dt="r8">1898126476</Timestamp><Current dt:dt="r8">0</Current><DateUtc dt:dt="string">2023-02-10T10:39:28Z</DateUtc></FrequencyChange></FrequencyChanges></Clock>\n	Wisconsin-1163-4	60.012	1.0.0.260	1	1900782088	Full	3.0.3.80	3.0.3.80	02-10-2023		18:39:29	Keyboard	Keyboard	Keyboard	3.0.3.82	Keyboard	3					1	1	2		BlockProc	List2	2								2	1	2							ShapeProc	List3											5	Button1.png	Button2.png	Button3.png	Button4.png	Yellowstar4.png							{Button4}	0							0	TrialProc	ShapeList	10	1	5				0	{Button4}	Button	2	33	375413	0	{Button2}	1847	377260	Shape
Wisconsin	1163	4	<?xml version="1.0"?>\n<Clock xmlns:dt="urn:schemas-microsoft-com:datatypes"><Description dt:dt="string">E-Prime Primary Realtime Clock</Description><StartTime><Timestamp dt:dt="int">0</Timestamp><DateUtc dt:dt="string">2023-02-10T10:39:28Z</DateUtc></StartTime><FrequencyChanges><FrequencyChange><Frequency dt:dt="r8">10000000</Frequency><Timestamp dt:dt="r8">1898126476</Timestamp><Current dt:dt="r8">0</Current><DateUtc dt:dt="string">2023-02-10T10:39:28Z</DateUtc></FrequencyChange></FrequencyChanges></Clock>\n	Wisconsin-1163-4	60.012	1.0.0.260	1	1900782088	Full	3.0.3.80	3.0.3.80	02-10-2023		18:39:29	Keyboard	Keyboard	Keyboard	3.0.3.82	Keyboard	3					1	1	2		BlockProc	List2	2								2	1	2							ShapeProc	List3											6	Button1.png	Button2.png	Button3.png	Button4.png	Yellowstar1.png							{Button4}	0							0	TrialProc	ShapeList	9	1	6				1	{Button4}	Button	10	49	379862	0	{Button4}	2070	381932	Shape
Wisconsin	1163	4	<?xml version="1.0"?>\n<Clock xmlns:dt="urn:schemas-microsoft-com:datatypes"><Description dt:dt="string">E-Prime Primary Realtime Clock</Description><StartTime><Timestamp dt:dt="int">0</Timestamp><DateUtc dt:dt="string">2023-02-10T10:39:28Z</DateUtc></StartTime><FrequencyChanges><FrequencyChange><Frequency dt:dt="r8">10000000</Frequency><Timestamp dt:dt="r8">1898126476</Timestamp><Current dt:dt="r8">0</Current><DateUtc dt:dt="string">2023-02-10T10:39:28Z</DateUtc></FrequencyChange></FrequencyChanges></Clock>\n	Wisconsin-1163-4	60.012	1.0.0.260	1	1900782088	Full	3.0.3.80	3.0.3.80	02-10-2023		18:39:29	Keyboard	Keyboard	Keyboard	3.0.3.82	Keyboard	3					1	1	2		BlockProc	List2	2								2	1	2							ShapeProc	List3											7	Button1.png	Button2.png	Button3.png	Button4.png	yellowcircle3.png							{Button1}	0							0	TrialProc	ShapeList	8	1	7				0	{Button1}	Button	10	50	384528	0	{Button3}	1708	386236	Shape
Wisconsin	1163	4	<?xml version="1.0"?>\n<Clock xmlns:dt="urn:schemas-microsoft-com:datatypes"><Description dt:dt="string">E-Prime Primary Realtime Clock</Description><StartTime><Timestamp dt:dt="int">0</Timestamp><DateUtc dt:dt="string">2023-02-10T10:39:28Z</DateUtc></StartTime><FrequencyChanges><FrequencyChange><Frequency dt:dt="r8">10000000</Frequency><Timestamp dt:dt="r8">1898126476</Timestamp><Current dt:dt="r8">0</Current><DateUtc dt:dt="string">2023-02-10T10:39:28Z</DateUtc></FrequencyChange></FrequencyChanges></Clock>\n	Wisconsin-1163-4	60.012	1.0.0.260	1	1900782088	Full	3.0.3.80	3.0.3.80	02-10-2023		18:39:29	Keyboard	Keyboard	Keyboard	3.0.3.82	Keyboard	3					1	1	2		BlockProc	List2	2								2	1	2							ShapeProc	List3											8	Button1.png	Button2.png	Button3.png	Button4.png	Redtriangle1.png							{Button2}	0							0	TrialProc	ShapeList	7	1	8				1	{Button2}	Button	10	50	388827	0	{Button2}	1545	390372	Shape
Wisconsin	1163	4	<?xml version="1.0"?>\n<Clock xmlns:dt="urn:schemas-microsoft-com:datatypes"><Description dt:dt="string">E-Prime Primary Realtime Clock</Description><StartTime><Timestamp dt:dt="int">0</Timestamp><DateUtc dt:dt="string">2023-02-10T10:39:28Z</DateUtc></StartTime><FrequencyChanges><FrequencyChange><Frequency dt:dt="r8">10000000</Frequency><Timestamp dt:dt="r8">1898126476</Timestamp><Current dt:dt="r8">0</Current><DateUtc dt:dt="string">2023-02-10T10:39:28Z</DateUtc></FrequencyChange></FrequencyChanges></Clock>\n	Wisconsin-1163-4	60.012	1.0.0.260	1	1900782088	Full	3.0.3.80	3.0.3.80	02-10-2023		18:39:29	Keyboard	Keyboard	Keyboard	3.0.3.82	Keyboard	3					1	1	2		BlockProc	List2	2								2	1	2							ShapeProc	List3											9	Button1.png	Button2.png	Button3.png	Button4.png	Redcross4.png							{Button3}	0							0	TrialProc	ShapeList	6	1	9				1	{Button3}	Button	2	50	392976	0	{Button3}	1372	394348	Shape
Wisconsin	1163	4	<?xml version="1.0"?>\n<Clock xmlns:dt="urn:schemas-microsoft-com:datatypes"><Description dt:dt="string">E-Prime Primary Realtime Clock</Description><StartTime><Timestamp dt:dt="int">0</Timestamp><DateUtc dt:dt="string">2023-02-10T10:39:28Z</DateUtc></StartTime><FrequencyChanges><FrequencyChange><Frequency dt:dt="r8">10000000</Frequency><Timestamp dt:dt="r8">1898126476</Timestamp><Current dt:dt="r8">0</Current><DateUtc dt:dt="string">2023-02-10T10:39:28Z</DateUtc></FrequencyChange></FrequencyChanges></Clock>\n	Wisconsin-1163-4	60.012	1.0.0.260	1	1900782088	Full	3.0.3.80	3.0.3.80	02-10-2023		18:39:29	Keyboard	Keyboard	Keyboard	3.0.3.82	Keyboard	3					1	1	2		BlockProc	List2	2								2	1	2							ShapeProc	List3											10	Button1.png	Button2.png	Button3.png	Button4.png	Redcross1.png							{Button3}	0							0	TrialProc	ShapeList	5	1	10				1	{Button3}	Button	10	33	396925	0	{Button3}	1095	398020	Shape
Wisconsin	1163	4	<?xml version="1.0"?>\n<Clock xmlns:dt="urn:schemas-microsoft-com:datatypes"><Description dt:dt="string">E-Prime Primary Realtime Clock</Description><StartTime><Timestamp dt:dt="int">0</Timestamp><DateUtc dt:dt="string">2023-02-10T10:39:28Z</DateUtc></StartTime><FrequencyChanges><FrequencyChange><Frequency dt:dt="r8">10000000</Frequency><Timestamp dt:dt="r8">1898126476</Timestamp><Current dt:dt="r8">0</Current><DateUtc dt:dt="string">2023-02-10T10:39:28Z</DateUtc></FrequencyChange></FrequencyChanges></Clock>\n	Wisconsin-1163-4	60.012	1.0.0.260	1	1900782088	Full	3.0.3.80	3.0.3.80	02-10-2023		18:39:29	Keyboard	Keyboard	Keyboard	3.0.3.82	Keyboard	3					1	1	2		BlockProc	List2	3								3	1	3							NumberProc	List3											1	Button1.png	Button2.png	Button3.png	Button4.png	Yellowcross3.png							{Button3}	0	10	1	1				0	TrialProc	NumberList							1	{Button3}	Button	11	50	400624	0	{Button3}	1164	401788	number
Wisconsin	1163	4	<?xml version="1.0"?>\n<Clock xmlns:dt="urn:schemas-microsoft-com:datatypes"><Description dt:dt="string">E-Prime Primary Realtime Clock</Description><StartTime><Timestamp dt:dt="int">0</Timestamp><DateUtc dt:dt="string">2023-02-10T10:39:28Z</DateUtc></StartTime><FrequencyChanges><FrequencyChange><Frequency dt:dt="r8">10000000</Frequency><Timestamp dt:dt="r8">1898126476</Timestamp><Current dt:dt="r8">0</Current><DateUtc dt:dt="string">2023-02-10T10:39:28Z</DateUtc></FrequencyChange></FrequencyChanges></Clock>\n	Wisconsin-1163-4	60.012	1.0.0.260	1	1900782088	Full	3.0.3.80	3.0.3.80	02-10-2023		18:39:29	Keyboard	Keyboard	Keyboard	3.0.3.82	Keyboard	3					1	1	2		BlockProc	List2	3								3	1	3							NumberProc	List3											2	Button1.png	Button2.png	Button3.png	Button4.png	Bluetriangle1.png							{Button4}	0	3	1	2				0	TrialProc	NumberList							1	{Button4}	Button	10	33	404373	0	{Button4}	2383	406756	number
Wisconsin	1163	4	<?xml version="1.0"?>\n<Clock xmlns:dt="urn:schemas-microsoft-com:datatypes"><Description dt:dt="string">E-Prime Primary Realtime Clock</Description><StartTime><Timestamp dt:dt="int">0</Timestamp><DateUtc dt:dt="string">2023-02-10T10:39:28Z</DateUtc></StartTime><FrequencyChanges><FrequencyChange><Frequency dt:dt="r8">10000000</Frequency><Timestamp dt:dt="r8">1898126476</Timestamp><Current dt:dt="r8">0</Current><DateUtc dt:dt="string">2023-02-10T10:39:28Z</DateUtc></FrequencyChange></FrequencyChanges></Clock>\n	Wisconsin-1163-4	60.012	1.0.0.260	1	1900782088	Full	3.0.3.80	3.0.3.80	02-10-2023		18:39:29	Keyboard	Keyboard	Keyboard	3.0.3.82	Keyboard	3					1	1	2		BlockProc	List2	3								3	1	3							NumberProc	List3											3	Button1.png	Button2.png	Button3.png	Button4.png	Greencircle4.png							{Button2}	0	4	1	3				0	TrialProc	NumberList							1	{Button2}	Button	11	50	409355	0	{Button2}	2801	412156	number
Wisconsin	1163	4	<?xml version="1.0"?>\n<Clock xmlns:dt="urn:schemas-microsoft-com:datatypes"><Description dt:dt="string">E-Prime Primary Realtime Clock</Description><StartTime><Timestamp dt:dt="int">0</Timestamp><DateUtc dt:dt="string">2023-02-10T10:39:28Z</DateUtc></StartTime><FrequencyChanges><FrequencyChange><Frequency dt:dt="r8">10000000</Frequency><Timestamp dt:dt="r8">1898126476</Timestamp><Current dt:dt="r8">0</Current><DateUtc dt:dt="string">2023-02-10T10:39:28Z</DateUtc></FrequencyChange></FrequencyChanges></Clock>\n	Wisconsin-1163-4	60.012	1.0.0.260	1	1900782088	Full	3.0.3.80	3.0.3.80	02-10-2023		18:39:29	Keyboard	Keyboard	Keyboard	3.0.3.82	Keyboard	3					1	1	2		BlockProc	List2	3								3	1	3							NumberProc	List3											4	Button1.png	Button2.png	Button3.png	Button4.png	Greencross3.png							{Button3}	0	5	1	4				0	TrialProc	NumberList							1	{Button3}	Button	2	33	414737	0	{Button3}	1179	415916	number
Wisconsin	1163	4	<?xml version="1.0"?>\n<Clock xmlns:dt="urn:schemas-microsoft-com:datatypes"><Description dt:dt="string">E-Prime Primary Realtime Clock</Description><StartTime><Timestamp dt:dt="int">0</Timestamp><DateUtc dt:dt="string">2023-02-10T10:39:28Z</DateUtc></StartTime><FrequencyChanges><FrequencyChange><Frequency dt:dt="r8">10000000</Frequency><Timestamp dt:dt="r8">1898126476</Timestamp><Current dt:dt="r8">0</Current><DateUtc dt:dt="string">2023-02-10T10:39:28Z</DateUtc></FrequencyChange></FrequencyChanges></Clock>\n	Wisconsin-1163-4	60.012	1.0.0.260	1	1900782088	Full	3.0.3.80	3.0.3.80	02-10-2023		18:39:29	Keyboard	Keyboard	Keyboard	3.0.3.82	Keyboard	3					1	1	2		BlockProc	List2	3								3	1	3							NumberProc	List3											5	Button1.png	Button2.png	Button3.png	Button4.png	Redstar2.png							{Button1}	0	7	1	5				0	TrialProc	NumberList							1	{Button1}	Button	1	50	418520	0	{Button1}	2452	420972	number
Wisconsin	1163	4	<?xml version="1.0"?>\n<Clock xmlns:dt="urn:schemas-microsoft-com:datatypes"><Description dt:dt="string">E-Prime Primary Realtime Clock</Description><StartTime><Timestamp dt:dt="int">0</Timestamp><DateUtc dt:dt="string">2023-02-10T10:39:28Z</DateUtc></StartTime><FrequencyChanges><FrequencyChange><Frequency dt:dt="r8">10000000</Frequency><Timestamp dt:dt="r8">1898126476</Timestamp><Current dt:dt="r8">0</Current><DateUtc dt:dt="string">2023-02-10T10:39:28Z</DateUtc></FrequencyChange></FrequencyChanges></Clock>\n	Wisconsin-1163-4	60.012	1.0.0.260	1	1900782088	Full	3.0.3.80	3.0.3.80	02-10-2023		18:39:29	Keyboard	Keyboard	Keyboard	3.0.3.82	Keyboard	3					1	1	2		BlockProc	List2	3								3	1	3							NumberProc	List3											6	Button1.png	Button2.png	Button3.png	Button4.png	Redtriangle4.png							{Button2}	0	8	1	6				0	TrialProc	NumberList							1	{Button2}	Button	10	33	423552	0	{Button2}	1140	424692	number
Wisconsin	1163	4	<?xml version="1.0"?>\n<Clock xmlns:dt="urn:schemas-microsoft-com:datatypes"><Description dt:dt="string">E-Prime Primary Realtime Clock</Description><StartTime><Timestamp dt:dt="int">0</Timestamp><DateUtc dt:dt="string">2023-02-10T10:39:28Z</DateUtc></StartTime><FrequencyChanges><FrequencyChange><Frequency dt:dt="r8">10000000</Frequency><Timestamp dt:dt="r8">1898126476</Timestamp><Current dt:dt="r8">0</Current><DateUtc dt:dt="string">2023-02-10T10:39:28Z</DateUtc></FrequencyChange></FrequencyChanges></Clock>\n	Wisconsin-1163-4	60.012	1.0.0.260	1	1900782088	Full	3.0.3.80	3.0.3.80	02-10-2023		18:39:29	Keyboard	Keyboard	Keyboard	3.0.3.82	Keyboard	3					1	1	2		BlockProc	List2	3								3	1	3							NumberProc	List3											7	Button1.png	Button2.png	Button3.png	Button4.png	Yellowcross1.png							{Button4}	0	9	1	7				0	TrialProc	NumberList							1	{Button4}	Button	2	50	427284	0	{Button4}	2392	429676	number
Wisconsin	1163	4	<?xml version="1.0"?>\n<Clock xmlns:dt="urn:schemas-microsoft-com:datatypes"><Description dt:dt="string">E-Prime Primary Realtime Clock</Description><StartTime><Timestamp dt:dt="int">0</Timestamp><DateUtc dt:dt="string">2023-02-10T10:39:28Z</DateUtc></StartTime><FrequencyChanges><FrequencyChange><Frequency dt:dt="r8">10000000</Frequency><Timestamp dt:dt="r8">1898126476</Timestamp><Current dt:dt="r8">0</Current><DateUtc dt:dt="string">2023-02-10T10:39:28Z</DateUtc></FrequencyChange></FrequencyChanges></Clock>\n	Wisconsin-1163-4	60.012	1.0.0.260	1	1900782088	Full	3.0.3.80	3.0.3.80	02-10-2023		18:39:29	Keyboard	Keyboard	Keyboard	3.0.3.82	Keyboard	3					1	1	2		BlockProc	List2	3								3	1	3							NumberProc	List3											8	Button1.png	Button2.png	Button3.png	Button4.png	Bluecircle4.png							{Button2}	0	1	1	8				0	TrialProc	NumberList							1	{Button2}	Button	12	33	432249	0	{Button2}	2267	434516	number
Wisconsin	1163	4	<?xml version="1.0"?>\n<Clock xmlns:dt="urn:schemas-microsoft-com:datatypes"><Description dt:dt="string">E-Prime Primary Realtime Clock</Description><StartTime><Timestamp dt:dt="int">0</Timestamp><DateUtc dt:dt="string">2023-02-10T10:39:28Z</DateUtc></StartTime><FrequencyChanges><FrequencyChange><Frequency dt:dt="r8">10000000</Frequency><Timestamp dt:dt="r8">1898126476</Timestamp><Current dt:dt="r8">0</Current><DateUtc dt:dt="string">2023-02-10T10:39:28Z</DateUtc></FrequencyChange></FrequencyChanges></Clock>\n	Wisconsin-1163-4	60.012	1.0.0.260	1	1900782088	Full	3.0.3.80	3.0.3.80	02-10-2023		18:39:29	Keyboard	Keyboard	Keyboard	3.0.3.82	Keyboard	3					1	1	2		BlockProc	List2	3								3	1	3							NumberProc	List3											9	Button1.png	Button2.png	Button3.png	Button4.png	Bluestar2.png							{Button1}	0	2	1	9				0	TrialProc	NumberList							0	{Button1}	Button	9	33	437082	0	{Button4}	2026	439108	number
Wisconsin	1163	4	<?xml version="1.0"?>\n<Clock xmlns:dt="urn:schemas-microsoft-com:datatypes"><Description dt:dt="string">E-Prime Primary Realtime Clock</Description><StartTime><Timestamp dt:dt="int">0</Timestamp><DateUtc dt:dt="string">2023-02-10T10:39:28Z</DateUtc></StartTime><FrequencyChanges><FrequencyChange><Frequency dt:dt="r8">10000000</Frequency><Timestamp dt:dt="r8">1898126476</Timestamp><Current dt:dt="r8">0</Current><DateUtc dt:dt="string">2023-02-10T10:39:28Z</DateUtc></FrequencyChange></FrequencyChanges></Clock>\n	Wisconsin-1163-4	60.012	1.0.0.260	1	1900782088	Full	3.0.3.80	3.0.3.80	02-10-2023		18:39:29	Keyboard	Keyboard	Keyboard	3.0.3.82	Keyboard	3					1	1	2		BlockProc	List2	3								3	1	3							NumberProc	List3											10	Button1.png	Button2.png	Button3.png	Button4.png	Redcircle4.png							{Button2}	0	6	1	10				0	TrialProc	NumberList							1	{Button2}	Button	1	34	441681	0	{Button2}	2171	443852	number
