ExperimentName	Subject	Session	Clock.Information	DataFile.Basename	Display.RefreshRate	ExperimentVersion	Group	RandomSeed	RuntimeCapabilities	RuntimeVersion	RuntimeVersionExpected	SessionDate	SessionStartDateTimeUtc	SessionTime	Slide1.DEVICE	Slide2.DEVICE	Slide3.DEVICE	StudioVersion	Welcome.DEVICE	Block	GetReady.DEVICE	List1	List1.Cycle	List1.Sample	List2	List2.Cycle	List2.Sample	PracticeReady.DEVICE	Procedure[Block]	Running[Block]	Trial	CardIMG1[Trial]	CardIMG2[Trial]	CardIMG3[Trial]	CardIMG4[Trial]	CardStim[Trial]	Category	CorrectAnswer[Trial]	List3	List3.Cycle	List3.Sample	List4	List4.Cycle	List4.Sample	PracticeList	PracticeList.Cycle	PracticeList.Sample	Procedure[Trial]	Running[Trial]	Slide4.ACC	Slide4.CRESP	Slide4.DEVICE	Slide4.DurationError	Slide4.OnsetDelay	Slide4.OnsetTime	Slide4.OnsetToOnsetTime	Slide4.RESP	Slide4.RT	Slide4.RTTime	SubTrial	CardIMG1[SubTrial]	CardIMG2[SubTrial]	CardIMG3[SubTrial]	CardIMG4[SubTrial]	CardStim[SubTrial]	ColorList	ColorList.Cycle	ColorList.Sample	ColorList2	ColorList2.Cycle	ColorList2.Sample	CorrectAnswer[SubTrial]	NonPerseverativeError	NumberList	NumberList.Cycle	NumberList.Sample	NumberList2	NumberList2.Cycle	NumberList2.Sample	PerseverativeError	Procedure[SubTrial]	Running[SubTrial]	ShapeList	ShapeList.Cycle	ShapeList.Sample	ShapeList2	ShapeList2.Cycle	ShapeList2.Sample	Slide5.ACC	Slide5.CRESP	Slide5.DEVICE	Slide5.DurationError	Slide5.OnsetDelay	Slide5.OnsetTime	Slide5.OnsetToOnsetTime	Slide5.RESP	Slide5.RT	Slide5.RTTime	TrialType
Wisconsin	1153	4	<?xml version="1.0"?>\n<Clock xmlns:dt="urn:schemas-microsoft-com:datatypes"><Description dt:dt="string">E-Prime Primary Realtime Clock</Description><StartTime><Timestamp dt:dt="int">0</Timestamp><DateUtc dt:dt="string">2023-01-07T07:14:44Z</DateUtc></StartTime><FrequencyChanges><FrequencyChange><Frequency dt:dt="r8">10000000</Frequency><Timestamp dt:dt="r8">18189310108680</Timestamp><Current dt:dt="r8">0</Current><DateUtc dt:dt="string">2023-01-07T07:14:44Z</DateUtc></FrequencyChange></FrequencyChanges></Clock>\n	Wisconsin-1153-4	60.004	1.0.0.254	1	126294353	Full	3.0.3.80	3.0.3.80	01-07-2023	1/7/2023 7:14:45 AM	15:14:45	Keyboard	Keyboard	Keyboard	3.0.3.82	Keyboard	1	Keyboard	1	1	1				Keyboard	Practiceploc	List1	1	Button1.png	Button2.png	Button3.png	Button4.png	Greencircle3.png	顏色	{button1}							1	1	1	PracticeTrialProc	PracticeList	1	{button1}	Button	2	33	32588	0	{Button1}	2059	34647																																								
Wisconsin	1153	4	<?xml version="1.0"?>\n<Clock xmlns:dt="urn:schemas-microsoft-com:datatypes"><Description dt:dt="string">E-Prime Primary Realtime Clock</Description><StartTime><Timestamp dt:dt="int">0</Timestamp><DateUtc dt:dt="string">2023-01-07T07:14:44Z</DateUtc></StartTime><FrequencyChanges><FrequencyChange><Frequency dt:dt="r8">10000000</Frequency><Timestamp dt:dt="r8">18189310108680</Timestamp><Current dt:dt="r8">0</Current><DateUtc dt:dt="string">2023-01-07T07:14:44Z</DateUtc></FrequencyChange></FrequencyChanges></Clock>\n	Wisconsin-1153-4	60.004	1.0.0.254	1	126294353	Full	3.0.3.80	3.0.3.80	01-07-2023	1/7/2023 7:14:45 AM	15:14:45	Keyboard	Keyboard	Keyboard	3.0.3.82	Keyboard	1	Keyboard	1	1	1				Keyboard	Practiceploc	List1	2	Button1.png	Button2.png	Button3.png	Button4.png	Redstar2.png	顏色	{button3}							2	1	2	PracticeTrialProc	PracticeList	1	{button3}	Button	1	33	37271	0	{Button3}	1199	38470																																								
Wisconsin	1153	4	<?xml version="1.0"?>\n<Clock xmlns:dt="urn:schemas-microsoft-com:datatypes"><Description dt:dt="string">E-Prime Primary Realtime Clock</Description><StartTime><Timestamp dt:dt="int">0</Timestamp><DateUtc dt:dt="string">2023-01-07T07:14:44Z</DateUtc></StartTime><FrequencyChanges><FrequencyChange><Frequency dt:dt="r8">10000000</Frequency><Timestamp dt:dt="r8">18189310108680</Timestamp><Current dt:dt="r8">0</Current><DateUtc dt:dt="string">2023-01-07T07:14:44Z</DateUtc></FrequencyChange></FrequencyChanges></Clock>\n	Wisconsin-1153-4	60.004	1.0.0.254	1	126294353	Full	3.0.3.80	3.0.3.80	01-07-2023	1/7/2023 7:14:45 AM	15:14:45	Keyboard	Keyboard	Keyboard	3.0.3.82	Keyboard	1	Keyboard	1	1	1				Keyboard	Practiceploc	List1	3	Button1.png	Button2.png	Button3.png	Button4.png	Bluetriangle1.png	形狀	{button2}							3	1	3	PracticeTrialProc	PracticeList	0	{button2}	Button	1	33	41053	0	{Button4}	1034	42087																																								
Wisconsin	1153	4	<?xml version="1.0"?>\n<Clock xmlns:dt="urn:schemas-microsoft-com:datatypes"><Description dt:dt="string">E-Prime Primary Realtime Clock</Description><StartTime><Timestamp dt:dt="int">0</Timestamp><DateUtc dt:dt="string">2023-01-07T07:14:44Z</DateUtc></StartTime><FrequencyChanges><FrequencyChange><Frequency dt:dt="r8">10000000</Frequency><Timestamp dt:dt="r8">18189310108680</Timestamp><Current dt:dt="r8">0</Current><DateUtc dt:dt="string">2023-01-07T07:14:44Z</DateUtc></FrequencyChange></FrequencyChanges></Clock>\n	Wisconsin-1153-4	60.004	1.0.0.254	1	126294353	Full	3.0.3.80	3.0.3.80	01-07-2023	1/7/2023 7:14:45 AM	15:14:45	Keyboard	Keyboard	Keyboard	3.0.3.82	Keyboard	1	Keyboard	1	1	1				Keyboard	Practiceploc	List1	4	Button1.png	Button2.png	Button3.png	Button4.png	greenstar2.png	形狀	{Button4}							4	1	4	PracticeTrialProc	PracticeList	1	{Button4}	Button	1	33	44669	0	{Button4}	1362	46031																																								
Wisconsin	1153	4	<?xml version="1.0"?>\n<Clock xmlns:dt="urn:schemas-microsoft-com:datatypes"><Description dt:dt="string">E-Prime Primary Realtime Clock</Description><StartTime><Timestamp dt:dt="int">0</Timestamp><DateUtc dt:dt="string">2023-01-07T07:14:44Z</DateUtc></StartTime><FrequencyChanges><FrequencyChange><Frequency dt:dt="r8">10000000</Frequency><Timestamp dt:dt="r8">18189310108680</Timestamp><Current dt:dt="r8">0</Current><DateUtc dt:dt="string">2023-01-07T07:14:44Z</DateUtc></FrequencyChange></FrequencyChanges></Clock>\n	Wisconsin-1153-4	60.004	1.0.0.254	1	126294353	Full	3.0.3.80	3.0.3.80	01-07-2023	1/7/2023 7:14:45 AM	15:14:45	Keyboard	Keyboard	Keyboard	3.0.3.82	Keyboard	1	Keyboard	1	1	1				Keyboard	Practiceploc	List1	5	Button1.png	Button2.png	Button3.png	Button4.png	BlueCross4.png	圖案數目	{Button2}							5	1	5	PracticeTrialProc	PracticeList	1	{Button2}	Button	1	33	48618	0	{Button2}	1949	50567																																								
Wisconsin	1153	4	<?xml version="1.0"?>\n<Clock xmlns:dt="urn:schemas-microsoft-com:datatypes"><Description dt:dt="string">E-Prime Primary Realtime Clock</Description><StartTime><Timestamp dt:dt="int">0</Timestamp><DateUtc dt:dt="string">2023-01-07T07:14:44Z</DateUtc></StartTime><FrequencyChanges><FrequencyChange><Frequency dt:dt="r8">10000000</Frequency><Timestamp dt:dt="r8">18189310108680</Timestamp><Current dt:dt="r8">0</Current><DateUtc dt:dt="string">2023-01-07T07:14:44Z</DateUtc></FrequencyChange></FrequencyChanges></Clock>\n	Wisconsin-1153-4	60.004	1.0.0.254	1	126294353	Full	3.0.3.80	3.0.3.80	01-07-2023	1/7/2023 7:14:45 AM	15:14:45	Keyboard	Keyboard	Keyboard	3.0.3.82	Keyboard	1	Keyboard	1	1	1				Keyboard	Practiceploc	List1	6	Button1.png	Button2.png	Button3.png	Button4.png	yellowcircle2.png	圖案數目	{Button1}							6	1	6	PracticeTrialProc	PracticeList	1	{Button1}	Button	2	33	53150	0	{Button1}	1289	54439																																								
Wisconsin	1153	4	<?xml version="1.0"?>\n<Clock xmlns:dt="urn:schemas-microsoft-com:datatypes"><Description dt:dt="string">E-Prime Primary Realtime Clock</Description><StartTime><Timestamp dt:dt="int">0</Timestamp><DateUtc dt:dt="string">2023-01-07T07:14:44Z</DateUtc></StartTime><FrequencyChanges><FrequencyChange><Frequency dt:dt="r8">10000000</Frequency><Timestamp dt:dt="r8">18189310108680</Timestamp><Current dt:dt="r8">0</Current><DateUtc dt:dt="string">2023-01-07T07:14:44Z</DateUtc></FrequencyChange></FrequencyChanges></Clock>\n	Wisconsin-1153-4	60.004	1.0.0.254	1	126294353	Full	3.0.3.80	3.0.3.80	01-07-2023	1/7/2023 7:14:45 AM	15:14:45	Keyboard	Keyboard	Keyboard	3.0.3.82	Keyboard	2					1	1	1		BlockProc	List2	1								1	1	1							ColorProc	List3											1	BUTTON1.png	BUTTON2.PNG	BUTTON3.png	BUTTON4.png	greencircle3.png	4	1	1				{button1}	0							0	TrialProc	ColorList							1	{button1}	Button	3	67	61165	0	{Button1}	1914	63079	Color
Wisconsin	1153	4	<?xml version="1.0"?>\n<Clock xmlns:dt="urn:schemas-microsoft-com:datatypes"><Description dt:dt="string">E-Prime Primary Realtime Clock</Description><StartTime><Timestamp dt:dt="int">0</Timestamp><DateUtc dt:dt="string">2023-01-07T07:14:44Z</DateUtc></StartTime><FrequencyChanges><FrequencyChange><Frequency dt:dt="r8">10000000</Frequency><Timestamp dt:dt="r8">18189310108680</Timestamp><Current dt:dt="r8">0</Current><DateUtc dt:dt="string">2023-01-07T07:14:44Z</DateUtc></FrequencyChange></FrequencyChanges></Clock>\n	Wisconsin-1153-4	60.004	1.0.0.254	1	126294353	Full	3.0.3.80	3.0.3.80	01-07-2023	1/7/2023 7:14:45 AM	15:14:45	Keyboard	Keyboard	Keyboard	3.0.3.82	Keyboard	2					1	1	1		BlockProc	List2	1								1	1	1							ColorProc	List3											2	BUTTON1.png	BUTTON2.PNG	BUTTON3.png	BUTTON4.png	redcircle3.png	8	1	2				{button3}	0							0	TrialProc	ColorList							0	{button3}	Button	3	49	65680	0	{Button1}	1351	67031	Color
Wisconsin	1153	4	<?xml version="1.0"?>\n<Clock xmlns:dt="urn:schemas-microsoft-com:datatypes"><Description dt:dt="string">E-Prime Primary Realtime Clock</Description><StartTime><Timestamp dt:dt="int">0</Timestamp><DateUtc dt:dt="string">2023-01-07T07:14:44Z</DateUtc></StartTime><FrequencyChanges><FrequencyChange><Frequency dt:dt="r8">10000000</Frequency><Timestamp dt:dt="r8">18189310108680</Timestamp><Current dt:dt="r8">0</Current><DateUtc dt:dt="string">2023-01-07T07:14:44Z</DateUtc></FrequencyChange></FrequencyChanges></Clock>\n	Wisconsin-1153-4	60.004	1.0.0.254	1	126294353	Full	3.0.3.80	3.0.3.80	01-07-2023	1/7/2023 7:14:45 AM	15:14:45	Keyboard	Keyboard	Keyboard	3.0.3.82	Keyboard	2					1	1	1		BlockProc	List2	1								1	1	1							ColorProc	List3											3	BUTTON1.png	BUTTON2.PNG	BUTTON3.png	BUTTON4.png	greentriangle3.png	7	1	3				{button1}	0							0	TrialProc	ColorList							0	{button1}	Button	15	66	69646	0	{Button2}	1713	71359	Color
Wisconsin	1153	4	<?xml version="1.0"?>\n<Clock xmlns:dt="urn:schemas-microsoft-com:datatypes"><Description dt:dt="string">E-Prime Primary Realtime Clock</Description><StartTime><Timestamp dt:dt="int">0</Timestamp><DateUtc dt:dt="string">2023-01-07T07:14:44Z</DateUtc></StartTime><FrequencyChanges><FrequencyChange><Frequency dt:dt="r8">10000000</Frequency><Timestamp dt:dt="r8">18189310108680</Timestamp><Current dt:dt="r8">0</Current><DateUtc dt:dt="string">2023-01-07T07:14:44Z</DateUtc></FrequencyChange></FrequencyChanges></Clock>\n	Wisconsin-1153-4	60.004	1.0.0.254	1	126294353	Full	3.0.3.80	3.0.3.80	01-07-2023	1/7/2023 7:14:45 AM	15:14:45	Keyboard	Keyboard	Keyboard	3.0.3.82	Keyboard	2					1	1	1		BlockProc	List2	1								1	1	1							ColorProc	List3											4	BUTTON1.png	BUTTON2.PNG	BUTTON3.png	BUTTON4.png	greentriangle1.png	6	1	4				{button1}	0							0	TrialProc	ColorList							1	{button1}	Button	9	33	73945	0	{Button1}	4475	78420	Color
Wisconsin	1153	4	<?xml version="1.0"?>\n<Clock xmlns:dt="urn:schemas-microsoft-com:datatypes"><Description dt:dt="string">E-Prime Primary Realtime Clock</Description><StartTime><Timestamp dt:dt="int">0</Timestamp><DateUtc dt:dt="string">2023-01-07T07:14:44Z</DateUtc></StartTime><FrequencyChanges><FrequencyChange><Frequency dt:dt="r8">10000000</Frequency><Timestamp dt:dt="r8">18189310108680</Timestamp><Current dt:dt="r8">0</Current><DateUtc dt:dt="string">2023-01-07T07:14:44Z</DateUtc></FrequencyChange></FrequencyChanges></Clock>\n	Wisconsin-1153-4	60.004	1.0.0.254	1	126294353	Full	3.0.3.80	3.0.3.80	01-07-2023	1/7/2023 7:14:45 AM	15:14:45	Keyboard	Keyboard	Keyboard	3.0.3.82	Keyboard	2					1	1	1		BlockProc	List2	1								1	1	1							ColorProc	List3											5	BUTTON1.png	BUTTON2.PNG	BUTTON3.png	BUTTON4.png	bluetriangle3.png	3	1	5				{button4}	0							0	TrialProc	ColorList							0	{button4}	Button	10	33	80993	0	{Button2}	2372	83365	Color
Wisconsin	1153	4	<?xml version="1.0"?>\n<Clock xmlns:dt="urn:schemas-microsoft-com:datatypes"><Description dt:dt="string">E-Prime Primary Realtime Clock</Description><StartTime><Timestamp dt:dt="int">0</Timestamp><DateUtc dt:dt="string">2023-01-07T07:14:44Z</DateUtc></StartTime><FrequencyChanges><FrequencyChange><Frequency dt:dt="r8">10000000</Frequency><Timestamp dt:dt="r8">18189310108680</Timestamp><Current dt:dt="r8">0</Current><DateUtc dt:dt="string">2023-01-07T07:14:44Z</DateUtc></FrequencyChange></FrequencyChanges></Clock>\n	Wisconsin-1153-4	60.004	1.0.0.254	1	126294353	Full	3.0.3.80	3.0.3.80	01-07-2023	1/7/2023 7:14:45 AM	15:14:45	Keyboard	Keyboard	Keyboard	3.0.3.82	Keyboard	2					1	1	1		BlockProc	List2	1								1	1	1							ColorProc	List3											6	BUTTON1.png	BUTTON2.PNG	BUTTON3.png	BUTTON4.png	greenstar2.png	5	1	6				{button1}	0							0	TrialProc	ColorList							0	{button1}	Button	10	33	85975	0	{Button4}	2269	88244	Color
Wisconsin	1153	4	<?xml version="1.0"?>\n<Clock xmlns:dt="urn:schemas-microsoft-com:datatypes"><Description dt:dt="string">E-Prime Primary Realtime Clock</Description><StartTime><Timestamp dt:dt="int">0</Timestamp><DateUtc dt:dt="string">2023-01-07T07:14:44Z</DateUtc></StartTime><FrequencyChanges><FrequencyChange><Frequency dt:dt="r8">10000000</Frequency><Timestamp dt:dt="r8">18189310108680</Timestamp><Current dt:dt="r8">0</Current><DateUtc dt:dt="string">2023-01-07T07:14:44Z</DateUtc></FrequencyChange></FrequencyChanges></Clock>\n	Wisconsin-1153-4	60.004	1.0.0.254	1	126294353	Full	3.0.3.80	3.0.3.80	01-07-2023	1/7/2023 7:14:45 AM	15:14:45	Keyboard	Keyboard	Keyboard	3.0.3.82	Keyboard	2					1	1	1		BlockProc	List2	1								1	1	1							ColorProc	List3											7	BUTTON1.png	BUTTON2.PNG	BUTTON3.png	BUTTON4.png	bluecross2.png	2	1	7				{button4}	0							0	TrialProc	ColorList							0	{button4}	Button	2	33	90824	0	{Button3}	1782	92606	Color
Wisconsin	1153	4	<?xml version="1.0"?>\n<Clock xmlns:dt="urn:schemas-microsoft-com:datatypes"><Description dt:dt="string">E-Prime Primary Realtime Clock</Description><StartTime><Timestamp dt:dt="int">0</Timestamp><DateUtc dt:dt="string">2023-01-07T07:14:44Z</DateUtc></StartTime><FrequencyChanges><FrequencyChange><Frequency dt:dt="r8">10000000</Frequency><Timestamp dt:dt="r8">18189310108680</Timestamp><Current dt:dt="r8">0</Current><DateUtc dt:dt="string">2023-01-07T07:14:44Z</DateUtc></FrequencyChange></FrequencyChanges></Clock>\n	Wisconsin-1153-4	60.004	1.0.0.254	1	126294353	Full	3.0.3.80	3.0.3.80	01-07-2023	1/7/2023 7:14:45 AM	15:14:45	Keyboard	Keyboard	Keyboard	3.0.3.82	Keyboard	2					1	1	1		BlockProc	List2	1								1	1	1							ColorProc	List3											8	BUTTON1.png	BUTTON2.PNG	BUTTON3.png	BUTTON4.png	yellowstar3.png	10	1	8				{button2}	0							0	TrialProc	ColorList							1	{button2}	Button	1	33	95190	0	{Button2}	3192	98382	Color
Wisconsin	1153	4	<?xml version="1.0"?>\n<Clock xmlns:dt="urn:schemas-microsoft-com:datatypes"><Description dt:dt="string">E-Prime Primary Realtime Clock</Description><StartTime><Timestamp dt:dt="int">0</Timestamp><DateUtc dt:dt="string">2023-01-07T07:14:44Z</DateUtc></StartTime><FrequencyChanges><FrequencyChange><Frequency dt:dt="r8">10000000</Frequency><Timestamp dt:dt="r8">18189310108680</Timestamp><Current dt:dt="r8">0</Current><DateUtc dt:dt="string">2023-01-07T07:14:44Z</DateUtc></FrequencyChange></FrequencyChanges></Clock>\n	Wisconsin-1153-4	60.004	1.0.0.254	1	126294353	Full	3.0.3.80	3.0.3.80	01-07-2023	1/7/2023 7:14:45 AM	15:14:45	Keyboard	Keyboard	Keyboard	3.0.3.82	Keyboard	2					1	1	1		BlockProc	List2	1								1	1	1							ColorProc	List3											9	BUTTON1.png	BUTTON2.PNG	BUTTON3.png	BUTTON4.png	bluecircle1.png	1	1	9				{button4}	0							0	TrialProc	ColorList							1	{button4}	Button	1	33	100955	0	{Button4}	1628	102583	Color
Wisconsin	1153	4	<?xml version="1.0"?>\n<Clock xmlns:dt="urn:schemas-microsoft-com:datatypes"><Description dt:dt="string">E-Prime Primary Realtime Clock</Description><StartTime><Timestamp dt:dt="int">0</Timestamp><DateUtc dt:dt="string">2023-01-07T07:14:44Z</DateUtc></StartTime><FrequencyChanges><FrequencyChange><Frequency dt:dt="r8">10000000</Frequency><Timestamp dt:dt="r8">18189310108680</Timestamp><Current dt:dt="r8">0</Current><DateUtc dt:dt="string">2023-01-07T07:14:44Z</DateUtc></FrequencyChange></FrequencyChanges></Clock>\n	Wisconsin-1153-4	60.004	1.0.0.254	1	126294353	Full	3.0.3.80	3.0.3.80	01-07-2023	1/7/2023 7:14:45 AM	15:14:45	Keyboard	Keyboard	Keyboard	3.0.3.82	Keyboard	2					1	1	1		BlockProc	List2	1								1	1	1							ColorProc	List3											10	BUTTON1.png	BUTTON2.PNG	BUTTON3.png	BUTTON4.png	yellowcircle1.png	9	1	10				{button2}	0							0	TrialProc	ColorList							1	{button2}	Button	9	33	105154	0	{Button2}	1477	106631	Color
Wisconsin	1153	4	<?xml version="1.0"?>\n<Clock xmlns:dt="urn:schemas-microsoft-com:datatypes"><Description dt:dt="string">E-Prime Primary Realtime Clock</Description><StartTime><Timestamp dt:dt="int">0</Timestamp><DateUtc dt:dt="string">2023-01-07T07:14:44Z</DateUtc></StartTime><FrequencyChanges><FrequencyChange><Frequency dt:dt="r8">10000000</Frequency><Timestamp dt:dt="r8">18189310108680</Timestamp><Current dt:dt="r8">0</Current><DateUtc dt:dt="string">2023-01-07T07:14:44Z</DateUtc></FrequencyChange></FrequencyChanges></Clock>\n	Wisconsin-1153-4	60.004	1.0.0.254	1	126294353	Full	3.0.3.80	3.0.3.80	01-07-2023	1/7/2023 7:14:45 AM	15:14:45	Keyboard	Keyboard	Keyboard	3.0.3.82	Keyboard	2					1	1	1		BlockProc	List2	2								2	1	2							ShapeProc	List3											1	Button1.png	Button2.png	Button3.png	Button4.png	Bluecross4.png							{Button3}	0							0	TrialProc	ShapeList	2	1	1				0	{Button3}	Button	10	33	109203	0	{Button4}	3420	112623	Shape
Wisconsin	1153	4	<?xml version="1.0"?>\n<Clock xmlns:dt="urn:schemas-microsoft-com:datatypes"><Description dt:dt="string">E-Prime Primary Realtime Clock</Description><StartTime><Timestamp dt:dt="int">0</Timestamp><DateUtc dt:dt="string">2023-01-07T07:14:44Z</DateUtc></StartTime><FrequencyChanges><FrequencyChange><Frequency dt:dt="r8">10000000</Frequency><Timestamp dt:dt="r8">18189310108680</Timestamp><Current dt:dt="r8">0</Current><DateUtc dt:dt="string">2023-01-07T07:14:44Z</DateUtc></FrequencyChange></FrequencyChanges></Clock>\n	Wisconsin-1153-4	60.004	1.0.0.254	1	126294353	Full	3.0.3.80	3.0.3.80	01-07-2023	1/7/2023 7:14:45 AM	15:14:45	Keyboard	Keyboard	Keyboard	3.0.3.82	Keyboard	2					1	1	1		BlockProc	List2	2								2	1	2							ShapeProc	List3											2	Button1.png	Button2.png	Button3.png	Button4.png	Yellowstar4.png							{Button4}	0							0	TrialProc	ShapeList	10	1	2				1	{Button4}	Button	1	33	115202	0	{Button4}	2196	117398	Shape
Wisconsin	1153	4	<?xml version="1.0"?>\n<Clock xmlns:dt="urn:schemas-microsoft-com:datatypes"><Description dt:dt="string">E-Prime Primary Realtime Clock</Description><StartTime><Timestamp dt:dt="int">0</Timestamp><DateUtc dt:dt="string">2023-01-07T07:14:44Z</DateUtc></StartTime><FrequencyChanges><FrequencyChange><Frequency dt:dt="r8">10000000</Frequency><Timestamp dt:dt="r8">18189310108680</Timestamp><Current dt:dt="r8">0</Current><DateUtc dt:dt="string">2023-01-07T07:14:44Z</DateUtc></FrequencyChange></FrequencyChanges></Clock>\n	Wisconsin-1153-4	60.004	1.0.0.254	1	126294353	Full	3.0.3.80	3.0.3.80	01-07-2023	1/7/2023 7:14:45 AM	15:14:45	Keyboard	Keyboard	Keyboard	3.0.3.82	Keyboard	2					1	1	1		BlockProc	List2	2								2	1	2							ShapeProc	List3											3	Button1.png	Button2.png	Button3.png	Button4.png	Bluecircle2.png							{Button1}	0							0	TrialProc	ShapeList	1	1	3				1	{Button1}	Button	3	49	120000	0	{Button1}	1071	121071	Shape
Wisconsin	1153	4	<?xml version="1.0"?>\n<Clock xmlns:dt="urn:schemas-microsoft-com:datatypes"><Description dt:dt="string">E-Prime Primary Realtime Clock</Description><StartTime><Timestamp dt:dt="int">0</Timestamp><DateUtc dt:dt="string">2023-01-07T07:14:44Z</DateUtc></StartTime><FrequencyChanges><FrequencyChange><Frequency dt:dt="r8">10000000</Frequency><Timestamp dt:dt="r8">18189310108680</Timestamp><Current dt:dt="r8">0</Current><DateUtc dt:dt="string">2023-01-07T07:14:44Z</DateUtc></FrequencyChange></FrequencyChanges></Clock>\n	Wisconsin-1153-4	60.004	1.0.0.254	1	126294353	Full	3.0.3.80	3.0.3.80	01-07-2023	1/7/2023 7:14:45 AM	15:14:45	Keyboard	Keyboard	Keyboard	3.0.3.82	Keyboard	2					1	1	1		BlockProc	List2	2								2	1	2							ShapeProc	List3											4	Button1.png	Button2.png	Button3.png	Button4.png	yellowcircle3.png							{Button1}	0							0	TrialProc	ShapeList	8	1	4				1	{Button1}	Button	1	34	123650	0	{Button1}	1397	125047	Shape
Wisconsin	1153	4	<?xml version="1.0"?>\n<Clock xmlns:dt="urn:schemas-microsoft-com:datatypes"><Description dt:dt="string">E-Prime Primary Realtime Clock</Description><StartTime><Timestamp dt:dt="int">0</Timestamp><DateUtc dt:dt="string">2023-01-07T07:14:44Z</DateUtc></StartTime><FrequencyChanges><FrequencyChange><Frequency dt:dt="r8">10000000</Frequency><Timestamp dt:dt="r8">18189310108680</Timestamp><Current dt:dt="r8">0</Current><DateUtc dt:dt="string">2023-01-07T07:14:44Z</DateUtc></FrequencyChange></FrequencyChanges></Clock>\n	Wisconsin-1153-4	60.004	1.0.0.254	1	126294353	Full	3.0.3.80	3.0.3.80	01-07-2023	1/7/2023 7:14:45 AM	15:14:45	Keyboard	Keyboard	Keyboard	3.0.3.82	Keyboard	2					1	1	1		BlockProc	List2	2								2	1	2							ShapeProc	List3											5	Button1.png	Button2.png	Button3.png	Button4.png	Yellowstar1.png							{Button4}	0							0	TrialProc	ShapeList	9	1	5				1	{Button4}	Button	1	33	127632	0	{Button4}	1166	128798	Shape
Wisconsin	1153	4	<?xml version="1.0"?>\n<Clock xmlns:dt="urn:schemas-microsoft-com:datatypes"><Description dt:dt="string">E-Prime Primary Realtime Clock</Description><StartTime><Timestamp dt:dt="int">0</Timestamp><DateUtc dt:dt="string">2023-01-07T07:14:44Z</DateUtc></StartTime><FrequencyChanges><FrequencyChange><Frequency dt:dt="r8">10000000</Frequency><Timestamp dt:dt="r8">18189310108680</Timestamp><Current dt:dt="r8">0</Current><DateUtc dt:dt="string">2023-01-07T07:14:44Z</DateUtc></FrequencyChange></FrequencyChanges></Clock>\n	Wisconsin-1153-4	60.004	1.0.0.254	1	126294353	Full	3.0.3.80	3.0.3.80	01-07-2023	1/7/2023 7:14:45 AM	15:14:45	Keyboard	Keyboard	Keyboard	3.0.3.82	Keyboard	2					1	1	1		BlockProc	List2	2								2	1	2							ShapeProc	List3											6	Button1.png	Button2.png	Button3.png	Button4.png	Greentriangle4.png							{Button2}	0							0	TrialProc	ShapeList	4	1	6				1	{Button2}	Button	2	33	131364	0	{Button2}	1075	132439	Shape
Wisconsin	1153	4	<?xml version="1.0"?>\n<Clock xmlns:dt="urn:schemas-microsoft-com:datatypes"><Description dt:dt="string">E-Prime Primary Realtime Clock</Description><StartTime><Timestamp dt:dt="int">0</Timestamp><DateUtc dt:dt="string">2023-01-07T07:14:44Z</DateUtc></StartTime><FrequencyChanges><FrequencyChange><Frequency dt:dt="r8">10000000</Frequency><Timestamp dt:dt="r8">18189310108680</Timestamp><Current dt:dt="r8">0</Current><DateUtc dt:dt="string">2023-01-07T07:14:44Z</DateUtc></FrequencyChange></FrequencyChanges></Clock>\n	Wisconsin-1153-4	60.004	1.0.0.254	1	126294353	Full	3.0.3.80	3.0.3.80	01-07-2023	1/7/2023 7:14:45 AM	15:14:45	Keyboard	Keyboard	Keyboard	3.0.3.82	Keyboard	2					1	1	1		BlockProc	List2	2								2	1	2							ShapeProc	List3											7	Button1.png	Button2.png	Button3.png	Button4.png	Greencross1.png							{Button3}	0							0	TrialProc	ShapeList	3	1	7				1	{Button3}	Button	2	33	135013	0	{Button3}	1297	136310	Shape
Wisconsin	1153	4	<?xml version="1.0"?>\n<Clock xmlns:dt="urn:schemas-microsoft-com:datatypes"><Description dt:dt="string">E-Prime Primary Realtime Clock</Description><StartTime><Timestamp dt:dt="int">0</Timestamp><DateUtc dt:dt="string">2023-01-07T07:14:44Z</DateUtc></StartTime><FrequencyChanges><FrequencyChange><Frequency dt:dt="r8">10000000</Frequency><Timestamp dt:dt="r8">18189310108680</Timestamp><Current dt:dt="r8">0</Current><DateUtc dt:dt="string">2023-01-07T07:14:44Z</DateUtc></FrequencyChange></FrequencyChanges></Clock>\n	Wisconsin-1153-4	60.004	1.0.0.254	1	126294353	Full	3.0.3.80	3.0.3.80	01-07-2023	1/7/2023 7:14:45 AM	15:14:45	Keyboard	Keyboard	Keyboard	3.0.3.82	Keyboard	2					1	1	1		BlockProc	List2	2								2	1	2							ShapeProc	List3											8	Button1.png	Button2.png	Button3.png	Button4.png	Redtriangle1.png							{Button2}	0							0	TrialProc	ShapeList	7	1	8				1	{Button2}	Button	1	50	138913	0	{Button2}	1030	139943	Shape
Wisconsin	1153	4	<?xml version="1.0"?>\n<Clock xmlns:dt="urn:schemas-microsoft-com:datatypes"><Description dt:dt="string">E-Prime Primary Realtime Clock</Description><StartTime><Timestamp dt:dt="int">0</Timestamp><DateUtc dt:dt="string">2023-01-07T07:14:44Z</DateUtc></StartTime><FrequencyChanges><FrequencyChange><Frequency dt:dt="r8">10000000</Frequency><Timestamp dt:dt="r8">18189310108680</Timestamp><Current dt:dt="r8">0</Current><DateUtc dt:dt="string">2023-01-07T07:14:44Z</DateUtc></FrequencyChange></FrequencyChanges></Clock>\n	Wisconsin-1153-4	60.004	1.0.0.254	1	126294353	Full	3.0.3.80	3.0.3.80	01-07-2023	1/7/2023 7:14:45 AM	15:14:45	Keyboard	Keyboard	Keyboard	3.0.3.82	Keyboard	2					1	1	1		BlockProc	List2	2								2	1	2							ShapeProc	List3											9	Button1.png	Button2.png	Button3.png	Button4.png	Redcross4.png							{Button3}	0							0	TrialProc	ShapeList	6	1	9				1	{Button3}	Button	1	50	142545	0	{Button3}	894	143439	Shape
Wisconsin	1153	4	<?xml version="1.0"?>\n<Clock xmlns:dt="urn:schemas-microsoft-com:datatypes"><Description dt:dt="string">E-Prime Primary Realtime Clock</Description><StartTime><Timestamp dt:dt="int">0</Timestamp><DateUtc dt:dt="string">2023-01-07T07:14:44Z</DateUtc></StartTime><FrequencyChanges><FrequencyChange><Frequency dt:dt="r8">10000000</Frequency><Timestamp dt:dt="r8">18189310108680</Timestamp><Current dt:dt="r8">0</Current><DateUtc dt:dt="string">2023-01-07T07:14:44Z</DateUtc></FrequencyChange></FrequencyChanges></Clock>\n	Wisconsin-1153-4	60.004	1.0.0.254	1	126294353	Full	3.0.3.80	3.0.3.80	01-07-2023	1/7/2023 7:14:45 AM	15:14:45	Keyboard	Keyboard	Keyboard	3.0.3.82	Keyboard	2					1	1	1		BlockProc	List2	2								2	1	2							ShapeProc	List3											10	Button1.png	Button2.png	Button3.png	Button4.png	Redcross1.png							{Button3}	0							0	TrialProc	ShapeList	5	1	10				1	{Button3}	Button	1	33	146011	0	{Button3}	820	146831	Shape
Wisconsin	1153	4	<?xml version="1.0"?>\n<Clock xmlns:dt="urn:schemas-microsoft-com:datatypes"><Description dt:dt="string">E-Prime Primary Realtime Clock</Description><StartTime><Timestamp dt:dt="int">0</Timestamp><DateUtc dt:dt="string">2023-01-07T07:14:44Z</DateUtc></StartTime><FrequencyChanges><FrequencyChange><Frequency dt:dt="r8">10000000</Frequency><Timestamp dt:dt="r8">18189310108680</Timestamp><Current dt:dt="r8">0</Current><DateUtc dt:dt="string">2023-01-07T07:14:44Z</DateUtc></FrequencyChange></FrequencyChanges></Clock>\n	Wisconsin-1153-4	60.004	1.0.0.254	1	126294353	Full	3.0.3.80	3.0.3.80	01-07-2023	1/7/2023 7:14:45 AM	15:14:45	Keyboard	Keyboard	Keyboard	3.0.3.82	Keyboard	2					1	1	1		BlockProc	List2	3								3	1	3							NumberProc	List3											1	Button1.png	Button2.png	Button3.png	Button4.png	Redstar2.png							{Button1}	0	7	1	1				0	TrialProc	NumberList							0	{Button1}	Button	1	50	149427	0	{Button4}	1540	150967	number
Wisconsin	1153	4	<?xml version="1.0"?>\n<Clock xmlns:dt="urn:schemas-microsoft-com:datatypes"><Description dt:dt="string">E-Prime Primary Realtime Clock</Description><StartTime><Timestamp dt:dt="int">0</Timestamp><DateUtc dt:dt="string">2023-01-07T07:14:44Z</DateUtc></StartTime><FrequencyChanges><FrequencyChange><Frequency dt:dt="r8">10000000</Frequency><Timestamp dt:dt="r8">18189310108680</Timestamp><Current dt:dt="r8">0</Current><DateUtc dt:dt="string">2023-01-07T07:14:44Z</DateUtc></FrequencyChange></FrequencyChanges></Clock>\n	Wisconsin-1153-4	60.004	1.0.0.254	1	126294353	Full	3.0.3.80	3.0.3.80	01-07-2023	1/7/2023 7:14:45 AM	15:14:45	Keyboard	Keyboard	Keyboard	3.0.3.82	Keyboard	2					1	1	1		BlockProc	List2	3								3	1	3							NumberProc	List3											2	Button1.png	Button2.png	Button3.png	Button4.png	Bluestar2.png							{Button1}	0	2	1	2				0	TrialProc	NumberList							0	{Button1}	Button	2	33	153542	0	{Button4}	1265	154807	number
Wisconsin	1153	4	<?xml version="1.0"?>\n<Clock xmlns:dt="urn:schemas-microsoft-com:datatypes"><Description dt:dt="string">E-Prime Primary Realtime Clock</Description><StartTime><Timestamp dt:dt="int">0</Timestamp><DateUtc dt:dt="string">2023-01-07T07:14:44Z</DateUtc></StartTime><FrequencyChanges><FrequencyChange><Frequency dt:dt="r8">10000000</Frequency><Timestamp dt:dt="r8">18189310108680</Timestamp><Current dt:dt="r8">0</Current><DateUtc dt:dt="string">2023-01-07T07:14:44Z</DateUtc></FrequencyChange></FrequencyChanges></Clock>\n	Wisconsin-1153-4	60.004	1.0.0.254	1	126294353	Full	3.0.3.80	3.0.3.80	01-07-2023	1/7/2023 7:14:45 AM	15:14:45	Keyboard	Keyboard	Keyboard	3.0.3.82	Keyboard	2					1	1	1		BlockProc	List2	3								3	1	3							NumberProc	List3											3	Button1.png	Button2.png	Button3.png	Button4.png	Bluetriangle1.png							{Button4}	0	3	1	3				0	TrialProc	NumberList							1	{Button4}	Button	11	33	157391	0	{Button4}	1600	158991	number
Wisconsin	1153	4	<?xml version="1.0"?>\n<Clock xmlns:dt="urn:schemas-microsoft-com:datatypes"><Description dt:dt="string">E-Prime Primary Realtime Clock</Description><StartTime><Timestamp dt:dt="int">0</Timestamp><DateUtc dt:dt="string">2023-01-07T07:14:44Z</DateUtc></StartTime><FrequencyChanges><FrequencyChange><Frequency dt:dt="r8">10000000</Frequency><Timestamp dt:dt="r8">18189310108680</Timestamp><Current dt:dt="r8">0</Current><DateUtc dt:dt="string">2023-01-07T07:14:44Z</DateUtc></FrequencyChange></FrequencyChanges></Clock>\n	Wisconsin-1153-4	60.004	1.0.0.254	1	126294353	Full	3.0.3.80	3.0.3.80	01-07-2023	1/7/2023 7:14:45 AM	15:14:45	Keyboard	Keyboard	Keyboard	3.0.3.82	Keyboard	2					1	1	1		BlockProc	List2	3								3	1	3							NumberProc	List3											4	Button1.png	Button2.png	Button3.png	Button4.png	Bluecircle4.png							{Button2}	0	1	1	4				0	TrialProc	NumberList							1	{Button2}	Button	9	33	161574	0	{Button2}	1273	162847	number
Wisconsin	1153	4	<?xml version="1.0"?>\n<Clock xmlns:dt="urn:schemas-microsoft-com:datatypes"><Description dt:dt="string">E-Prime Primary Realtime Clock</Description><StartTime><Timestamp dt:dt="int">0</Timestamp><DateUtc dt:dt="string">2023-01-07T07:14:44Z</DateUtc></StartTime><FrequencyChanges><FrequencyChange><Frequency dt:dt="r8">10000000</Frequency><Timestamp dt:dt="r8">18189310108680</Timestamp><Current dt:dt="r8">0</Current><DateUtc dt:dt="string">2023-01-07T07:14:44Z</DateUtc></FrequencyChange></FrequencyChanges></Clock>\n	Wisconsin-1153-4	60.004	1.0.0.254	1	126294353	Full	3.0.3.80	3.0.3.80	01-07-2023	1/7/2023 7:14:45 AM	15:14:45	Keyboard	Keyboard	Keyboard	3.0.3.82	Keyboard	2					1	1	1		BlockProc	List2	3								3	1	3							NumberProc	List3											5	Button1.png	Button2.png	Button3.png	Button4.png	Yellowcross1.png							{Button4}	0	9	1	5				0	TrialProc	NumberList							1	{Button4}	Button	10	33	165423	0	{Button4}	2168	167591	number
Wisconsin	1153	4	<?xml version="1.0"?>\n<Clock xmlns:dt="urn:schemas-microsoft-com:datatypes"><Description dt:dt="string">E-Prime Primary Realtime Clock</Description><StartTime><Timestamp dt:dt="int">0</Timestamp><DateUtc dt:dt="string">2023-01-07T07:14:44Z</DateUtc></StartTime><FrequencyChanges><FrequencyChange><Frequency dt:dt="r8">10000000</Frequency><Timestamp dt:dt="r8">18189310108680</Timestamp><Current dt:dt="r8">0</Current><DateUtc dt:dt="string">2023-01-07T07:14:44Z</DateUtc></FrequencyChange></FrequencyChanges></Clock>\n	Wisconsin-1153-4	60.004	1.0.0.254	1	126294353	Full	3.0.3.80	3.0.3.80	01-07-2023	1/7/2023 7:14:45 AM	15:14:45	Keyboard	Keyboard	Keyboard	3.0.3.82	Keyboard	2					1	1	1		BlockProc	List2	3								3	1	3							NumberProc	List3											6	Button1.png	Button2.png	Button3.png	Button4.png	Greencircle4.png							{Button2}	0	4	1	6				0	TrialProc	NumberList							1	{Button2}	Button	1	34	170172	0	{Button2}	1067	171239	number
Wisconsin	1153	4	<?xml version="1.0"?>\n<Clock xmlns:dt="urn:schemas-microsoft-com:datatypes"><Description dt:dt="string">E-Prime Primary Realtime Clock</Description><StartTime><Timestamp dt:dt="int">0</Timestamp><DateUtc dt:dt="string">2023-01-07T07:14:44Z</DateUtc></StartTime><FrequencyChanges><FrequencyChange><Frequency dt:dt="r8">10000000</Frequency><Timestamp dt:dt="r8">18189310108680</Timestamp><Current dt:dt="r8">0</Current><DateUtc dt:dt="string">2023-01-07T07:14:44Z</DateUtc></FrequencyChange></FrequencyChanges></Clock>\n	Wisconsin-1153-4	60.004	1.0.0.254	1	126294353	Full	3.0.3.80	3.0.3.80	01-07-2023	1/7/2023 7:14:45 AM	15:14:45	Keyboard	Keyboard	Keyboard	3.0.3.82	Keyboard	2					1	1	1		BlockProc	List2	3								3	1	3							NumberProc	List3											7	Button1.png	Button2.png	Button3.png	Button4.png	Redcircle4.png							{Button2}	0	6	1	7				0	TrialProc	NumberList							1	{Button2}	Button	1	33	173804	0	{Button2}	1458	175262	number
Wisconsin	1153	4	<?xml version="1.0"?>\n<Clock xmlns:dt="urn:schemas-microsoft-com:datatypes"><Description dt:dt="string">E-Prime Primary Realtime Clock</Description><StartTime><Timestamp dt:dt="int">0</Timestamp><DateUtc dt:dt="string">2023-01-07T07:14:44Z</DateUtc></StartTime><FrequencyChanges><FrequencyChange><Frequency dt:dt="r8">10000000</Frequency><Timestamp dt:dt="r8">18189310108680</Timestamp><Current dt:dt="r8">0</Current><DateUtc dt:dt="string">2023-01-07T07:14:44Z</DateUtc></FrequencyChange></FrequencyChanges></Clock>\n	Wisconsin-1153-4	60.004	1.0.0.254	1	126294353	Full	3.0.3.80	3.0.3.80	01-07-2023	1/7/2023 7:14:45 AM	15:14:45	Keyboard	Keyboard	Keyboard	3.0.3.82	Keyboard	2					1	1	1		BlockProc	List2	3								3	1	3							NumberProc	List3											8	Button1.png	Button2.png	Button3.png	Button4.png	Yellowcross3.png							{Button3}	0	10	1	8				0	TrialProc	NumberList							1	{Button3}	Button	10	33	177836	0	{Button3}	1195	179031	number
Wisconsin	1153	4	<?xml version="1.0"?>\n<Clock xmlns:dt="urn:schemas-microsoft-com:datatypes"><Description dt:dt="string">E-Prime Primary Realtime Clock</Description><StartTime><Timestamp dt:dt="int">0</Timestamp><DateUtc dt:dt="string">2023-01-07T07:14:44Z</DateUtc></StartTime><FrequencyChanges><FrequencyChange><Frequency dt:dt="r8">10000000</Frequency><Timestamp dt:dt="r8">18189310108680</Timestamp><Current dt:dt="r8">0</Current><DateUtc dt:dt="string">2023-01-07T07:14:44Z</DateUtc></FrequencyChange></FrequencyChanges></Clock>\n	Wisconsin-1153-4	60.004	1.0.0.254	1	126294353	Full	3.0.3.80	3.0.3.80	01-07-2023	1/7/2023 7:14:45 AM	15:14:45	Keyboard	Keyboard	Keyboard	3.0.3.82	Keyboard	2					1	1	1		BlockProc	List2	3								3	1	3							NumberProc	List3											9	Button1.png	Button2.png	Button3.png	Button4.png	Redtriangle4.png							{Button2}	0	8	1	9				0	TrialProc	NumberList							1	{Button2}	Button	10	33	181602	0	{Button2}	1293	182895	number
Wisconsin	1153	4	<?xml version="1.0"?>\n<Clock xmlns:dt="urn:schemas-microsoft-com:datatypes"><Description dt:dt="string">E-Prime Primary Realtime Clock</Description><StartTime><Timestamp dt:dt="int">0</Timestamp><DateUtc dt:dt="string">2023-01-07T07:14:44Z</DateUtc></StartTime><FrequencyChanges><FrequencyChange><Frequency dt:dt="r8">10000000</Frequency><Timestamp dt:dt="r8">18189310108680</Timestamp><Current dt:dt="r8">0</Current><DateUtc dt:dt="string">2023-01-07T07:14:44Z</DateUtc></FrequencyChange></FrequencyChanges></Clock>\n	Wisconsin-1153-4	60.004	1.0.0.254	1	126294353	Full	3.0.3.80	3.0.3.80	01-07-2023	1/7/2023 7:14:45 AM	15:14:45	Keyboard	Keyboard	Keyboard	3.0.3.82	Keyboard	2					1	1	1		BlockProc	List2	3								3	1	3							NumberProc	List3											10	Button1.png	Button2.png	Button3.png	Button4.png	Greencross3.png							{Button3}	0	5	1	10				0	TrialProc	NumberList							1	{Button3}	Button	9	33	185468	0	{Button3}	931	186399	number
Wisconsin	1153	4	<?xml version="1.0"?>\n<Clock xmlns:dt="urn:schemas-microsoft-com:datatypes"><Description dt:dt="string">E-Prime Primary Realtime Clock</Description><StartTime><Timestamp dt:dt="int">0</Timestamp><DateUtc dt:dt="string">2023-01-07T07:14:44Z</DateUtc></StartTime><FrequencyChanges><FrequencyChange><Frequency dt:dt="r8">10000000</Frequency><Timestamp dt:dt="r8">18189310108680</Timestamp><Current dt:dt="r8">0</Current><DateUtc dt:dt="string">2023-01-07T07:14:44Z</DateUtc></FrequencyChange></FrequencyChanges></Clock>\n	Wisconsin-1153-4	60.004	1.0.0.254	1	126294353	Full	3.0.3.80	3.0.3.80	01-07-2023	1/7/2023 7:14:45 AM	15:14:45	Keyboard	Keyboard	Keyboard	3.0.3.82	Keyboard	3					2	1	2		BlockProc2	List2	1											3	1	1				NumberProc2	List4											1	Button1.png	Button2.png	Button3.png	Button4.png	Bluecross3.png							{button3}	0				1	1	1	0	TrialProc	NumberList2							1	{button3}	Button	9	33	188984	0	{Button3}	727	189711	number
Wisconsin	1153	4	<?xml version="1.0"?>\n<Clock xmlns:dt="urn:schemas-microsoft-com:datatypes"><Description dt:dt="string">E-Prime Primary Realtime Clock</Description><StartTime><Timestamp dt:dt="int">0</Timestamp><DateUtc dt:dt="string">2023-01-07T07:14:44Z</DateUtc></StartTime><FrequencyChanges><FrequencyChange><Frequency dt:dt="r8">10000000</Frequency><Timestamp dt:dt="r8">18189310108680</Timestamp><Current dt:dt="r8">0</Current><DateUtc dt:dt="string">2023-01-07T07:14:44Z</DateUtc></FrequencyChange></FrequencyChanges></Clock>\n	Wisconsin-1153-4	60.004	1.0.0.254	1	126294353	Full	3.0.3.80	3.0.3.80	01-07-2023	1/7/2023 7:14:45 AM	15:14:45	Keyboard	Keyboard	Keyboard	3.0.3.82	Keyboard	3					2	1	2		BlockProc2	List2	1											3	1	1				NumberProc2	List4											2	Button1.png	Button2.png	Button3.png	Button4.png	Bluestar4.png							{button2}	0				2	1	2	0	TrialProc	NumberList2							1	{button2}	Button	9	33	192283	0	{Button2}	1876	194159	number
Wisconsin	1153	4	<?xml version="1.0"?>\n<Clock xmlns:dt="urn:schemas-microsoft-com:datatypes"><Description dt:dt="string">E-Prime Primary Realtime Clock</Description><StartTime><Timestamp dt:dt="int">0</Timestamp><DateUtc dt:dt="string">2023-01-07T07:14:44Z</DateUtc></StartTime><FrequencyChanges><FrequencyChange><Frequency dt:dt="r8">10000000</Frequency><Timestamp dt:dt="r8">18189310108680</Timestamp><Current dt:dt="r8">0</Current><DateUtc dt:dt="string">2023-01-07T07:14:44Z</DateUtc></FrequencyChange></FrequencyChanges></Clock>\n	Wisconsin-1153-4	60.004	1.0.0.254	1	126294353	Full	3.0.3.80	3.0.3.80	01-07-2023	1/7/2023 7:14:45 AM	15:14:45	Keyboard	Keyboard	Keyboard	3.0.3.82	Keyboard	3					2	1	2		BlockProc2	List2	1											3	1	1				NumberProc2	List4											3	Button1.png	Button2.png	Button3.png	Button4.png	Bluetriangle4.png							{button2}	0				3	1	3	0	TrialProc	NumberList2							1	{button2}	Button	9	33	196732	0	{Button2}	547	197279	number
Wisconsin	1153	4	<?xml version="1.0"?>\n<Clock xmlns:dt="urn:schemas-microsoft-com:datatypes"><Description dt:dt="string">E-Prime Primary Realtime Clock</Description><StartTime><Timestamp dt:dt="int">0</Timestamp><DateUtc dt:dt="string">2023-01-07T07:14:44Z</DateUtc></StartTime><FrequencyChanges><FrequencyChange><Frequency dt:dt="r8">10000000</Frequency><Timestamp dt:dt="r8">18189310108680</Timestamp><Current dt:dt="r8">0</Current><DateUtc dt:dt="string">2023-01-07T07:14:44Z</DateUtc></FrequencyChange></FrequencyChanges></Clock>\n	Wisconsin-1153-4	60.004	1.0.0.254	1	126294353	Full	3.0.3.80	3.0.3.80	01-07-2023	1/7/2023 7:14:45 AM	15:14:45	Keyboard	Keyboard	Keyboard	3.0.3.82	Keyboard	3					2	1	2		BlockProc2	List2	1											3	1	1				NumberProc2	List4											4	Button1.png	Button2.png	Button3.png	Button4.png	Greencross2.png							{button1}	0				4	1	4	0	TrialProc	NumberList2							1	{button1}	Button	9	33	199864	0	{Button1}	2367	202231	number
Wisconsin	1153	4	<?xml version="1.0"?>\n<Clock xmlns:dt="urn:schemas-microsoft-com:datatypes"><Description dt:dt="string">E-Prime Primary Realtime Clock</Description><StartTime><Timestamp dt:dt="int">0</Timestamp><DateUtc dt:dt="string">2023-01-07T07:14:44Z</DateUtc></StartTime><FrequencyChanges><FrequencyChange><Frequency dt:dt="r8">10000000</Frequency><Timestamp dt:dt="r8">18189310108680</Timestamp><Current dt:dt="r8">0</Current><DateUtc dt:dt="string">2023-01-07T07:14:44Z</DateUtc></FrequencyChange></FrequencyChanges></Clock>\n	Wisconsin-1153-4	60.004	1.0.0.254	1	126294353	Full	3.0.3.80	3.0.3.80	01-07-2023	1/7/2023 7:14:45 AM	15:14:45	Keyboard	Keyboard	Keyboard	3.0.3.82	Keyboard	3					2	1	2		BlockProc2	List2	1											3	1	1				NumberProc2	List4											5	Button1.png	Button2.png	Button3.png	Button4.png	Greenstar1.png							{button4}	0				5	1	5	0	TrialProc	NumberList2							1	{button4}	Button	2	33	204796	0	{Button4}	1203	205999	number
Wisconsin	1153	4	<?xml version="1.0"?>\n<Clock xmlns:dt="urn:schemas-microsoft-com:datatypes"><Description dt:dt="string">E-Prime Primary Realtime Clock</Description><StartTime><Timestamp dt:dt="int">0</Timestamp><DateUtc dt:dt="string">2023-01-07T07:14:44Z</DateUtc></StartTime><FrequencyChanges><FrequencyChange><Frequency dt:dt="r8">10000000</Frequency><Timestamp dt:dt="r8">18189310108680</Timestamp><Current dt:dt="r8">0</Current><DateUtc dt:dt="string">2023-01-07T07:14:44Z</DateUtc></FrequencyChange></FrequencyChanges></Clock>\n	Wisconsin-1153-4	60.004	1.0.0.254	1	126294353	Full	3.0.3.80	3.0.3.80	01-07-2023	1/7/2023 7:14:45 AM	15:14:45	Keyboard	Keyboard	Keyboard	3.0.3.82	Keyboard	3					2	1	2		BlockProc2	List2	1											3	1	1				NumberProc2	List4											6	Button1.png	Button2.png	Button3.png	Button4.png	Redstar1.png							{button4}	0				6	1	6	0	TrialProc	NumberList2							1	{button4}	Button	1	33	208579	0	{Button4}	892	209471	number
Wisconsin	1153	4	<?xml version="1.0"?>\n<Clock xmlns:dt="urn:schemas-microsoft-com:datatypes"><Description dt:dt="string">E-Prime Primary Realtime Clock</Description><StartTime><Timestamp dt:dt="int">0</Timestamp><DateUtc dt:dt="string">2023-01-07T07:14:44Z</DateUtc></StartTime><FrequencyChanges><FrequencyChange><Frequency dt:dt="r8">10000000</Frequency><Timestamp dt:dt="r8">18189310108680</Timestamp><Current dt:dt="r8">0</Current><DateUtc dt:dt="string">2023-01-07T07:14:44Z</DateUtc></FrequencyChange></FrequencyChanges></Clock>\n	Wisconsin-1153-4	60.004	1.0.0.254	1	126294353	Full	3.0.3.80	3.0.3.80	01-07-2023	1/7/2023 7:14:45 AM	15:14:45	Keyboard	Keyboard	Keyboard	3.0.3.82	Keyboard	3					2	1	2		BlockProc2	List2	1											3	1	1				NumberProc2	List4											7	Button1.png	Button2.png	Button3.png	Button4.png	Redtriangle2.png							{button1}	0				7	1	7	0	TrialProc	NumberList2							1	{button1}	Button	1	33	212045	0	{Button1}	1234	213279	number
Wisconsin	1153	4	<?xml version="1.0"?>\n<Clock xmlns:dt="urn:schemas-microsoft-com:datatypes"><Description dt:dt="string">E-Prime Primary Realtime Clock</Description><StartTime><Timestamp dt:dt="int">0</Timestamp><DateUtc dt:dt="string">2023-01-07T07:14:44Z</DateUtc></StartTime><FrequencyChanges><FrequencyChange><Frequency dt:dt="r8">10000000</Frequency><Timestamp dt:dt="r8">18189310108680</Timestamp><Current dt:dt="r8">0</Current><DateUtc dt:dt="string">2023-01-07T07:14:44Z</DateUtc></FrequencyChange></FrequencyChanges></Clock>\n	Wisconsin-1153-4	60.004	1.0.0.254	1	126294353	Full	3.0.3.80	3.0.3.80	01-07-2023	1/7/2023 7:14:45 AM	15:14:45	Keyboard	Keyboard	Keyboard	3.0.3.82	Keyboard	3					2	1	2		BlockProc2	List2	1											3	1	1				NumberProc2	List4											8	Button1.png	Button2.png	Button3.png	Button4.png	yellowcircle4.png							{button2}	0				8	1	8	0	TrialProc	NumberList2							0	{button2}	Button	9	50	215877	0	{Button1}	2450	218327	number
Wisconsin	1153	4	<?xml version="1.0"?>\n<Clock xmlns:dt="urn:schemas-microsoft-com:datatypes"><Description dt:dt="string">E-Prime Primary Realtime Clock</Description><StartTime><Timestamp dt:dt="int">0</Timestamp><DateUtc dt:dt="string">2023-01-07T07:14:44Z</DateUtc></StartTime><FrequencyChanges><FrequencyChange><Frequency dt:dt="r8">10000000</Frequency><Timestamp dt:dt="r8">18189310108680</Timestamp><Current dt:dt="r8">0</Current><DateUtc dt:dt="string">2023-01-07T07:14:44Z</DateUtc></FrequencyChange></FrequencyChanges></Clock>\n	Wisconsin-1153-4	60.004	1.0.0.254	1	126294353	Full	3.0.3.80	3.0.3.80	01-07-2023	1/7/2023 7:14:45 AM	15:14:45	Keyboard	Keyboard	Keyboard	3.0.3.82	Keyboard	3					2	1	2		BlockProc2	List2	1											3	1	1				NumberProc2	List4											9	Button1.png	Button2.png	Button3.png	Button4.png	Yellowcross2.png							{button1}	0				9	1	9	0	TrialProc	NumberList2							1	{button1}	Button	10	33	220909	0	{Button1}	1458	222367	number
Wisconsin	1153	4	<?xml version="1.0"?>\n<Clock xmlns:dt="urn:schemas-microsoft-com:datatypes"><Description dt:dt="string">E-Prime Primary Realtime Clock</Description><StartTime><Timestamp dt:dt="int">0</Timestamp><DateUtc dt:dt="string">2023-01-07T07:14:44Z</DateUtc></StartTime><FrequencyChanges><FrequencyChange><Frequency dt:dt="r8">10000000</Frequency><Timestamp dt:dt="r8">18189310108680</Timestamp><Current dt:dt="r8">0</Current><DateUtc dt:dt="string">2023-01-07T07:14:44Z</DateUtc></FrequencyChange></FrequencyChanges></Clock>\n	Wisconsin-1153-4	60.004	1.0.0.254	1	126294353	Full	3.0.3.80	3.0.3.80	01-07-2023	1/7/2023 7:14:45 AM	15:14:45	Keyboard	Keyboard	Keyboard	3.0.3.82	Keyboard	3					2	1	2		BlockProc2	List2	1											3	1	1				NumberProc2	List4											10	Button1.png	Button2.png	Button3.png	Button4.png	Yellowtriangle2.png							{button3}	0				10	1	10	0	TrialProc	NumberList2							0	{button3}	Button	10	33	224941	0	{Button1}	2425	227366	number
Wisconsin	1153	4	<?xml version="1.0"?>\n<Clock xmlns:dt="urn:schemas-microsoft-com:datatypes"><Description dt:dt="string">E-Prime Primary Realtime Clock</Description><StartTime><Timestamp dt:dt="int">0</Timestamp><DateUtc dt:dt="string">2023-01-07T07:14:44Z</DateUtc></StartTime><FrequencyChanges><FrequencyChange><Frequency dt:dt="r8">10000000</Frequency><Timestamp dt:dt="r8">18189310108680</Timestamp><Current dt:dt="r8">0</Current><DateUtc dt:dt="string">2023-01-07T07:14:44Z</DateUtc></FrequencyChange></FrequencyChanges></Clock>\n	Wisconsin-1153-4	60.004	1.0.0.254	1	126294353	Full	3.0.3.80	3.0.3.80	01-07-2023	1/7/2023 7:14:45 AM	15:14:45	Keyboard	Keyboard	Keyboard	3.0.3.82	Keyboard	3					2	1	2		BlockProc2	List2	2											1	1	2				ColorProc2	List4											1	BUTTON1.png	BUTTON2.PNG	BUTTON3.png	BUTTON4.png	Redcircle2.png				7	1	1	{Button3}	0							0	TrialProc	ColorList2							1	{Button3}	Button	10	33	229940	0	{Button3}	1667	231607	color
Wisconsin	1153	4	<?xml version="1.0"?>\n<Clock xmlns:dt="urn:schemas-microsoft-com:datatypes"><Description dt:dt="string">E-Prime Primary Realtime Clock</Description><StartTime><Timestamp dt:dt="int">0</Timestamp><DateUtc dt:dt="string">2023-01-07T07:14:44Z</DateUtc></StartTime><FrequencyChanges><FrequencyChange><Frequency dt:dt="r8">10000000</Frequency><Timestamp dt:dt="r8">18189310108680</Timestamp><Current dt:dt="r8">0</Current><DateUtc dt:dt="string">2023-01-07T07:14:44Z</DateUtc></FrequencyChange></FrequencyChanges></Clock>\n	Wisconsin-1153-4	60.004	1.0.0.254	1	126294353	Full	3.0.3.80	3.0.3.80	01-07-2023	1/7/2023 7:14:45 AM	15:14:45	Keyboard	Keyboard	Keyboard	3.0.3.82	Keyboard	3					2	1	2		BlockProc2	List2	2											1	1	2				ColorProc2	List4											2	BUTTON1.png	BUTTON2.PNG	BUTTON3.png	BUTTON4.png	Greencircle1.png				3	1	2	{Button1}	0							0	TrialProc	ColorList2							1	{Button1}	Button	9	34	234173	0	{Button1}	881	235054	color
Wisconsin	1153	4	<?xml version="1.0"?>\n<Clock xmlns:dt="urn:schemas-microsoft-com:datatypes"><Description dt:dt="string">E-Prime Primary Realtime Clock</Description><StartTime><Timestamp dt:dt="int">0</Timestamp><DateUtc dt:dt="string">2023-01-07T07:14:44Z</DateUtc></StartTime><FrequencyChanges><FrequencyChange><Frequency dt:dt="r8">10000000</Frequency><Timestamp dt:dt="r8">18189310108680</Timestamp><Current dt:dt="r8">0</Current><DateUtc dt:dt="string">2023-01-07T07:14:44Z</DateUtc></FrequencyChange></FrequencyChanges></Clock>\n	Wisconsin-1153-4	60.004	1.0.0.254	1	126294353	Full	3.0.3.80	3.0.3.80	01-07-2023	1/7/2023 7:14:45 AM	15:14:45	Keyboard	Keyboard	Keyboard	3.0.3.82	Keyboard	3					2	1	2		BlockProc2	List2	2											1	1	2				ColorProc2	List4											3	BUTTON1.png	BUTTON2.PNG	BUTTON3.png	BUTTON4.png	greencross4.png				4	1	3	{Button1}	0							0	TrialProc	ColorList2							0	{Button1}	Button	2	33	237638	0	{Button3}	1185	238823	color
Wisconsin	1153	4	<?xml version="1.0"?>\n<Clock xmlns:dt="urn:schemas-microsoft-com:datatypes"><Description dt:dt="string">E-Prime Primary Realtime Clock</Description><StartTime><Timestamp dt:dt="int">0</Timestamp><DateUtc dt:dt="string">2023-01-07T07:14:44Z</DateUtc></StartTime><FrequencyChanges><FrequencyChange><Frequency dt:dt="r8">10000000</Frequency><Timestamp dt:dt="r8">18189310108680</Timestamp><Current dt:dt="r8">0</Current><DateUtc dt:dt="string">2023-01-07T07:14:44Z</DateUtc></FrequencyChange></FrequencyChanges></Clock>\n	Wisconsin-1153-4	60.004	1.0.0.254	1	126294353	Full	3.0.3.80	3.0.3.80	01-07-2023	1/7/2023 7:14:45 AM	15:14:45	Keyboard	Keyboard	Keyboard	3.0.3.82	Keyboard	3					2	1	2		BlockProc2	List2	2											1	1	2				ColorProc2	List4											4	BUTTON1.png	BUTTON2.PNG	BUTTON3.png	BUTTON4.png	redstar4.png				8	1	4	{Button3}	0							0	TrialProc	ColorList2							1	{Button3}	Button	9	33	241404	0	{Button3}	1307	242711	color
Wisconsin	1153	4	<?xml version="1.0"?>\n<Clock xmlns:dt="urn:schemas-microsoft-com:datatypes"><Description dt:dt="string">E-Prime Primary Realtime Clock</Description><StartTime><Timestamp dt:dt="int">0</Timestamp><DateUtc dt:dt="string">2023-01-07T07:14:44Z</DateUtc></StartTime><FrequencyChanges><FrequencyChange><Frequency dt:dt="r8">10000000</Frequency><Timestamp dt:dt="r8">18189310108680</Timestamp><Current dt:dt="r8">0</Current><DateUtc dt:dt="string">2023-01-07T07:14:44Z</DateUtc></FrequencyChange></FrequencyChanges></Clock>\n	Wisconsin-1153-4	60.004	1.0.0.254	1	126294353	Full	3.0.3.80	3.0.3.80	01-07-2023	1/7/2023 7:14:45 AM	15:14:45	Keyboard	Keyboard	Keyboard	3.0.3.82	Keyboard	3					2	1	2		BlockProc2	List2	2											1	1	2				ColorProc2	List4											5	BUTTON1.png	BUTTON2.PNG	BUTTON3.png	BUTTON4.png	bluestar3.png				2	1	5	{Button4}	0							0	TrialProc	ColorList2							1	{Button4}	Button	10	33	245286	0	{Button4}	1297	246583	color
Wisconsin	1153	4	<?xml version="1.0"?>\n<Clock xmlns:dt="urn:schemas-microsoft-com:datatypes"><Description dt:dt="string">E-Prime Primary Realtime Clock</Description><StartTime><Timestamp dt:dt="int">0</Timestamp><DateUtc dt:dt="string">2023-01-07T07:14:44Z</DateUtc></StartTime><FrequencyChanges><FrequencyChange><Frequency dt:dt="r8">10000000</Frequency><Timestamp dt:dt="r8">18189310108680</Timestamp><Current dt:dt="r8">0</Current><DateUtc dt:dt="string">2023-01-07T07:14:44Z</DateUtc></FrequencyChange></FrequencyChanges></Clock>\n	Wisconsin-1153-4	60.004	1.0.0.254	1	126294353	Full	3.0.3.80	3.0.3.80	01-07-2023	1/7/2023 7:14:45 AM	15:14:45	Keyboard	Keyboard	Keyboard	3.0.3.82	Keyboard	3					2	1	2		BlockProc2	List2	2											1	1	2				ColorProc2	List4											6	BUTTON1.png	BUTTON2.PNG	BUTTON3.png	BUTTON4.png	bluecross1.png				1	1	6	{Button4}	0							0	TrialProc	ColorList2							1	{Button4}	Button	10	33	249169	0	{Button4}	750	249919	color
Wisconsin	1153	4	<?xml version="1.0"?>\n<Clock xmlns:dt="urn:schemas-microsoft-com:datatypes"><Description dt:dt="string">E-Prime Primary Realtime Clock</Description><StartTime><Timestamp dt:dt="int">0</Timestamp><DateUtc dt:dt="string">2023-01-07T07:14:44Z</DateUtc></StartTime><FrequencyChanges><FrequencyChange><Frequency dt:dt="r8">10000000</Frequency><Timestamp dt:dt="r8">18189310108680</Timestamp><Current dt:dt="r8">0</Current><DateUtc dt:dt="string">2023-01-07T07:14:44Z</DateUtc></FrequencyChange></FrequencyChanges></Clock>\n	Wisconsin-1153-4	60.004	1.0.0.254	1	126294353	Full	3.0.3.80	3.0.3.80	01-07-2023	1/7/2023 7:14:45 AM	15:14:45	Keyboard	Keyboard	Keyboard	3.0.3.82	Keyboard	3					2	1	2		BlockProc2	List2	2											1	1	2				ColorProc2	List4											7	BUTTON1.png	BUTTON2.PNG	BUTTON3.png	BUTTON4.png	yellowtriangle3.png				10	1	7	{Button2}	0							0	TrialProc	ColorList2							1	{Button2}	Button	10	50	252518	0	{Button2}	937	253455	color
Wisconsin	1153	4	<?xml version="1.0"?>\n<Clock xmlns:dt="urn:schemas-microsoft-com:datatypes"><Description dt:dt="string">E-Prime Primary Realtime Clock</Description><StartTime><Timestamp dt:dt="int">0</Timestamp><DateUtc dt:dt="string">2023-01-07T07:14:44Z</DateUtc></StartTime><FrequencyChanges><FrequencyChange><Frequency dt:dt="r8">10000000</Frequency><Timestamp dt:dt="r8">18189310108680</Timestamp><Current dt:dt="r8">0</Current><DateUtc dt:dt="string">2023-01-07T07:14:44Z</DateUtc></FrequencyChange></FrequencyChanges></Clock>\n	Wisconsin-1153-4	60.004	1.0.0.254	1	126294353	Full	3.0.3.80	3.0.3.80	01-07-2023	1/7/2023 7:14:45 AM	15:14:45	Keyboard	Keyboard	Keyboard	3.0.3.82	Keyboard	3					2	1	2		BlockProc2	List2	2											1	1	2				ColorProc2	List4											8	BUTTON1.png	BUTTON2.PNG	BUTTON3.png	BUTTON4.png	yellowcircle2.png				9	1	8	{Button2}	0							0	TrialProc	ColorList2							1	{Button2}	Button	12	50	256051	0	{Button2}	1060	257111	color
Wisconsin	1153	4	<?xml version="1.0"?>\n<Clock xmlns:dt="urn:schemas-microsoft-com:datatypes"><Description dt:dt="string">E-Prime Primary Realtime Clock</Description><StartTime><Timestamp dt:dt="int">0</Timestamp><DateUtc dt:dt="string">2023-01-07T07:14:44Z</DateUtc></StartTime><FrequencyChanges><FrequencyChange><Frequency dt:dt="r8">10000000</Frequency><Timestamp dt:dt="r8">18189310108680</Timestamp><Current dt:dt="r8">0</Current><DateUtc dt:dt="string">2023-01-07T07:14:44Z</DateUtc></FrequencyChange></FrequencyChanges></Clock>\n	Wisconsin-1153-4	60.004	1.0.0.254	1	126294353	Full	3.0.3.80	3.0.3.80	01-07-2023	1/7/2023 7:14:45 AM	15:14:45	Keyboard	Keyboard	Keyboard	3.0.3.82	Keyboard	3					2	1	2		BlockProc2	List2	2											1	1	2				ColorProc2	List4											9	BUTTON1.png	BUTTON2.PNG	BUTTON3.png	BUTTON4.png	greenstar4.png				5	1	9	{Button1}	0							0	TrialProc	ColorList2							1	{Button1}	Button	10	33	259683	0	{Button1}	1012	260695	color
Wisconsin	1153	4	<?xml version="1.0"?>\n<Clock xmlns:dt="urn:schemas-microsoft-com:datatypes"><Description dt:dt="string">E-Prime Primary Realtime Clock</Description><StartTime><Timestamp dt:dt="int">0</Timestamp><DateUtc dt:dt="string">2023-01-07T07:14:44Z</DateUtc></StartTime><FrequencyChanges><FrequencyChange><Frequency dt:dt="r8">10000000</Frequency><Timestamp dt:dt="r8">18189310108680</Timestamp><Current dt:dt="r8">0</Current><DateUtc dt:dt="string">2023-01-07T07:14:44Z</DateUtc></FrequencyChange></FrequencyChanges></Clock>\n	Wisconsin-1153-4	60.004	1.0.0.254	1	126294353	Full	3.0.3.80	3.0.3.80	01-07-2023	1/7/2023 7:14:45 AM	15:14:45	Keyboard	Keyboard	Keyboard	3.0.3.82	Keyboard	3					2	1	2		BlockProc2	List2	2											1	1	2				ColorProc2	List4											10	BUTTON1.png	BUTTON2.PNG	BUTTON3.png	BUTTON4.png	greentriangle2.png				6	1	10	{Button1}	0							0	TrialProc	ColorList2							1	{Button1}	Button	10	33	263282	0	{Button1}	932	264214	color
Wisconsin	1153	4	<?xml version="1.0"?>\n<Clock xmlns:dt="urn:schemas-microsoft-com:datatypes"><Description dt:dt="string">E-Prime Primary Realtime Clock</Description><StartTime><Timestamp dt:dt="int">0</Timestamp><DateUtc dt:dt="string">2023-01-07T07:14:44Z</DateUtc></StartTime><FrequencyChanges><FrequencyChange><Frequency dt:dt="r8">10000000</Frequency><Timestamp dt:dt="r8">18189310108680</Timestamp><Current dt:dt="r8">0</Current><DateUtc dt:dt="string">2023-01-07T07:14:44Z</DateUtc></FrequencyChange></FrequencyChanges></Clock>\n	Wisconsin-1153-4	60.004	1.0.0.254	1	126294353	Full	3.0.3.80	3.0.3.80	01-07-2023	1/7/2023 7:14:45 AM	15:14:45	Keyboard	Keyboard	Keyboard	3.0.3.82	Keyboard	3					2	1	2		BlockProc2	List2	3											2	1	3				ShapeProc2	List4											1	Button1.png	Button2.png	Button3.png	Button4.png	Greenstar3.png							{button4}	0							0	TrialProc	ShapeList2				3	1	1	0	{button4}	Button	9	33	266798	0	{Button1}	889	267687	Shape
Wisconsin	1153	4	<?xml version="1.0"?>\n<Clock xmlns:dt="urn:schemas-microsoft-com:datatypes"><Description dt:dt="string">E-Prime Primary Realtime Clock</Description><StartTime><Timestamp dt:dt="int">0</Timestamp><DateUtc dt:dt="string">2023-01-07T07:14:44Z</DateUtc></StartTime><FrequencyChanges><FrequencyChange><Frequency dt:dt="r8">10000000</Frequency><Timestamp dt:dt="r8">18189310108680</Timestamp><Current dt:dt="r8">0</Current><DateUtc dt:dt="string">2023-01-07T07:14:44Z</DateUtc></FrequencyChange></FrequencyChanges></Clock>\n	Wisconsin-1153-4	60.004	1.0.0.254	1	126294353	Full	3.0.3.80	3.0.3.80	01-07-2023	1/7/2023 7:14:45 AM	15:14:45	Keyboard	Keyboard	Keyboard	3.0.3.82	Keyboard	3					2	1	2		BlockProc2	List2	3											2	1	3				ShapeProc2	List4											2	Button1.png	Button2.png	Button3.png	Button4.png	Bluetriangle2.png							{button2}	0							0	TrialProc	ShapeList2				2	1	2	0	{button2}	Button	10	33	270264	0	{Button4}	1695	271959	Shape
Wisconsin	1153	4	<?xml version="1.0"?>\n<Clock xmlns:dt="urn:schemas-microsoft-com:datatypes"><Description dt:dt="string">E-Prime Primary Realtime Clock</Description><StartTime><Timestamp dt:dt="int">0</Timestamp><DateUtc dt:dt="string">2023-01-07T07:14:44Z</DateUtc></StartTime><FrequencyChanges><FrequencyChange><Frequency dt:dt="r8">10000000</Frequency><Timestamp dt:dt="r8">18189310108680</Timestamp><Current dt:dt="r8">0</Current><DateUtc dt:dt="string">2023-01-07T07:14:44Z</DateUtc></FrequencyChange></FrequencyChanges></Clock>\n	Wisconsin-1153-4	60.004	1.0.0.254	1	126294353	Full	3.0.3.80	3.0.3.80	01-07-2023	1/7/2023 7:14:45 AM	15:14:45	Keyboard	Keyboard	Keyboard	3.0.3.82	Keyboard	3					2	1	2		BlockProc2	List2	3											2	1	3				ShapeProc2	List4											3	Button1.png	Button2.png	Button3.png	Button4.png	Redtriangle3.png							{button2}	0							0	TrialProc	ShapeList2				7	1	3	1	{button2}	Button	10	33	274546	0	{Button2}	1420	275966	Shape
Wisconsin	1153	4	<?xml version="1.0"?>\n<Clock xmlns:dt="urn:schemas-microsoft-com:datatypes"><Description dt:dt="string">E-Prime Primary Realtime Clock</Description><StartTime><Timestamp dt:dt="int">0</Timestamp><DateUtc dt:dt="string">2023-01-07T07:14:44Z</DateUtc></StartTime><FrequencyChanges><FrequencyChange><Frequency dt:dt="r8">10000000</Frequency><Timestamp dt:dt="r8">18189310108680</Timestamp><Current dt:dt="r8">0</Current><DateUtc dt:dt="string">2023-01-07T07:14:44Z</DateUtc></FrequencyChange></FrequencyChanges></Clock>\n	Wisconsin-1153-4	60.004	1.0.0.254	1	126294353	Full	3.0.3.80	3.0.3.80	01-07-2023	1/7/2023 7:14:45 AM	15:14:45	Keyboard	Keyboard	Keyboard	3.0.3.82	Keyboard	3					2	1	2		BlockProc2	List2	3											2	1	3				ShapeProc2	List4											4	Button1.png	Button2.png	Button3.png	Button4.png	Redstar3.png							{button4}	0							0	TrialProc	ShapeList2				6	1	4	1	{button4}	Button	10	33	278545	0	{Button4}	2006	280551	Shape
Wisconsin	1153	4	<?xml version="1.0"?>\n<Clock xmlns:dt="urn:schemas-microsoft-com:datatypes"><Description dt:dt="string">E-Prime Primary Realtime Clock</Description><StartTime><Timestamp dt:dt="int">0</Timestamp><DateUtc dt:dt="string">2023-01-07T07:14:44Z</DateUtc></StartTime><FrequencyChanges><FrequencyChange><Frequency dt:dt="r8">10000000</Frequency><Timestamp dt:dt="r8">18189310108680</Timestamp><Current dt:dt="r8">0</Current><DateUtc dt:dt="string">2023-01-07T07:14:44Z</DateUtc></FrequencyChange></FrequencyChanges></Clock>\n	Wisconsin-1153-4	60.004	1.0.0.254	1	126294353	Full	3.0.3.80	3.0.3.80	01-07-2023	1/7/2023 7:14:45 AM	15:14:45	Keyboard	Keyboard	Keyboard	3.0.3.82	Keyboard	3					2	1	2		BlockProc2	List2	3											2	1	3				ShapeProc2	List4											5	Button1.png	Button2.png	Button3.png	Button4.png	Bluecircle3.png							{button1}	0							0	TrialProc	ShapeList2				1	1	5	1	{button1}	Button	2	33	283127	0	{Button1}	1368	284495	Shape
Wisconsin	1153	4	<?xml version="1.0"?>\n<Clock xmlns:dt="urn:schemas-microsoft-com:datatypes"><Description dt:dt="string">E-Prime Primary Realtime Clock</Description><StartTime><Timestamp dt:dt="int">0</Timestamp><DateUtc dt:dt="string">2023-01-07T07:14:44Z</DateUtc></StartTime><FrequencyChanges><FrequencyChange><Frequency dt:dt="r8">10000000</Frequency><Timestamp dt:dt="r8">18189310108680</Timestamp><Current dt:dt="r8">0</Current><DateUtc dt:dt="string">2023-01-07T07:14:44Z</DateUtc></FrequencyChange></FrequencyChanges></Clock>\n	Wisconsin-1153-4	60.004	1.0.0.254	1	126294353	Full	3.0.3.80	3.0.3.80	01-07-2023	1/7/2023 7:14:45 AM	15:14:45	Keyboard	Keyboard	Keyboard	3.0.3.82	Keyboard	3					2	1	2		BlockProc2	List2	3											2	1	3				ShapeProc2	List4											6	Button1.png	Button2.png	Button3.png	Button4.png	Redcross2.png							{button3}	0							0	TrialProc	ShapeList2				5	1	6	1	{button3}	Button	2	33	287076	0	{Button3}	1235	288311	Shape
Wisconsin	1153	4	<?xml version="1.0"?>\n<Clock xmlns:dt="urn:schemas-microsoft-com:datatypes"><Description dt:dt="string">E-Prime Primary Realtime Clock</Description><StartTime><Timestamp dt:dt="int">0</Timestamp><DateUtc dt:dt="string">2023-01-07T07:14:44Z</DateUtc></StartTime><FrequencyChanges><FrequencyChange><Frequency dt:dt="r8">10000000</Frequency><Timestamp dt:dt="r8">18189310108680</Timestamp><Current dt:dt="r8">0</Current><DateUtc dt:dt="string">2023-01-07T07:14:44Z</DateUtc></FrequencyChange></FrequencyChanges></Clock>\n	Wisconsin-1153-4	60.004	1.0.0.254	1	126294353	Full	3.0.3.80	3.0.3.80	01-07-2023	1/7/2023 7:14:45 AM	15:14:45	Keyboard	Keyboard	Keyboard	3.0.3.82	Keyboard	3					2	1	2		BlockProc2	List2	3											2	1	3				ShapeProc2	List4											7	Button1.png	Button2.png	Button3.png	Button4.png	yellowcross4.png							{button3}	0							0	TrialProc	ShapeList2				8	1	7	1	{button3}	Button	1	33	290892	0	{Button3}	1379	292271	Shape
Wisconsin	1153	4	<?xml version="1.0"?>\n<Clock xmlns:dt="urn:schemas-microsoft-com:datatypes"><Description dt:dt="string">E-Prime Primary Realtime Clock</Description><StartTime><Timestamp dt:dt="int">0</Timestamp><DateUtc dt:dt="string">2023-01-07T07:14:44Z</DateUtc></StartTime><FrequencyChanges><FrequencyChange><Frequency dt:dt="r8">10000000</Frequency><Timestamp dt:dt="r8">18189310108680</Timestamp><Current dt:dt="r8">0</Current><DateUtc dt:dt="string">2023-01-07T07:14:44Z</DateUtc></FrequencyChange></FrequencyChanges></Clock>\n	Wisconsin-1153-4	60.004	1.0.0.254	1	126294353	Full	3.0.3.80	3.0.3.80	01-07-2023	1/7/2023 7:14:45 AM	15:14:45	Keyboard	Keyboard	Keyboard	3.0.3.82	Keyboard	3					2	1	2		BlockProc2	List2	3											2	1	3				ShapeProc2	List4											8	Button1.png	Button2.png	Button3.png	Button4.png	redcircle1.png							{button1}	0							0	TrialProc	ShapeList2				4	1	8	1	{button1}	Button	1	33	294858	0	{Button1}	1133	295991	Shape
Wisconsin	1153	4	<?xml version="1.0"?>\n<Clock xmlns:dt="urn:schemas-microsoft-com:datatypes"><Description dt:dt="string">E-Prime Primary Realtime Clock</Description><StartTime><Timestamp dt:dt="int">0</Timestamp><DateUtc dt:dt="string">2023-01-07T07:14:44Z</DateUtc></StartTime><FrequencyChanges><FrequencyChange><Frequency dt:dt="r8">10000000</Frequency><Timestamp dt:dt="r8">18189310108680</Timestamp><Current dt:dt="r8">0</Current><DateUtc dt:dt="string">2023-01-07T07:14:44Z</DateUtc></FrequencyChange></FrequencyChanges></Clock>\n	Wisconsin-1153-4	60.004	1.0.0.254	1	126294353	Full	3.0.3.80	3.0.3.80	01-07-2023	1/7/2023 7:14:45 AM	15:14:45	Keyboard	Keyboard	Keyboard	3.0.3.82	Keyboard	3					2	1	2		BlockProc2	List2	3											2	1	3				ShapeProc2	List4											9	Button1.png	Button2.png	Button3.png	Button4.png	Yellowstar2.png							{button4}	0							0	TrialProc	ShapeList2				9	1	9	1	{button4}	Button	2	33	298573	0	{Button4}	1562	300135	Shape
Wisconsin	1153	4	<?xml version="1.0"?>\n<Clock xmlns:dt="urn:schemas-microsoft-com:datatypes"><Description dt:dt="string">E-Prime Primary Realtime Clock</Description><StartTime><Timestamp dt:dt="int">0</Timestamp><DateUtc dt:dt="string">2023-01-07T07:14:44Z</DateUtc></StartTime><FrequencyChanges><FrequencyChange><Frequency dt:dt="r8">10000000</Frequency><Timestamp dt:dt="r8">18189310108680</Timestamp><Current dt:dt="r8">0</Current><DateUtc dt:dt="string">2023-01-07T07:14:44Z</DateUtc></FrequencyChange></FrequencyChanges></Clock>\n	Wisconsin-1153-4	60.004	1.0.0.254	1	126294353	Full	3.0.3.80	3.0.3.80	01-07-2023	1/7/2023 7:14:45 AM	15:14:45	Keyboard	Keyboard	Keyboard	3.0.3.82	Keyboard	3					2	1	2		BlockProc2	List2	3											2	1	3				ShapeProc2	List4											10	Button1.png	Button2.png	Button3.png	Button4.png	Yellowtriangle1.png							{button2}	0							0	TrialProc	ShapeList2				10	1	10	1	{button2}	Button	3	33	302706	0	{Button2}	917	303623	Shape
