ExperimentName	Subject	Session	Clock.Information	DataFile.Basename	Display.RefreshRate	ExperimentVersion	Group	RandomSeed	RuntimeCapabilities	RuntimeVersion	RuntimeVersionExpected	SessionDate	SessionStartDateTimeUtc	SessionTime	StudioVersion	Block	List1	List1.Cycle	List1.Sample	List3	List3.Cycle	List3.Sample	Procedure[Block]	Running[Block]	Trial	CardIMG1[Trial]	CardIMG2[Trial]	CardIMG3[Trial]	CardIMG4[Trial]	CardStim[Trial]	Category	CorrectAnswer[Trial]	FeedbackDisplay2.ACC	FeedbackDisplay2.CRESP	FeedbackDisplay2.DurationError	FeedbackDisplay2.OnsetDelay	FeedbackDisplay2.OnsetTime	FeedbackDisplay2.OnsetToOnsetTime	FeedbackDisplay2.RESP	FeedbackDisplay2.RT	FeedbackDisplay2.RTTime	List2	List2.Cycle	List2.Sample	List4	List4.Cycle	List4.Sample	PracticeList	PracticeList.Cycle	PracticeList.Sample	Procedure[Trial]	Running[Trial]	Slide5.ACC	Slide5.CRESP	Slide5.DurationError	Slide5.OnsetDelay	Slide5.OnsetTime	Slide5.OnsetToOnsetTime	Slide5.RESP	Slide5.RT	SubTrial	CardIMG1[SubTrial]	CardIMG2[SubTrial]	CardIMG3[SubTrial]	CardIMG4[SubTrial]	CardStim[SubTrial]	ColorList	ColorList.Cycle	ColorList.Sample	ColorList2	ColorList2.Cycle	ColorList2.Sample	CorrectAnswer[SubTrial]	NonPerseverativeError	NumberList	NumberList.Cycle	NumberList.Sample	NumberList1	NumberList1.Cycle	NumberList1.Sample	PerseverativeError	Procedure[SubTrial]	Running[SubTrial]	ShapeList	ShapeList.Cycle	ShapeList.Sample	ShapeList1	ShapeList1.Cycle	ShapeList1.Sample	Stimulus.ACC	Stimulus.CRESP	Stimulus.DurationError	Stimulus.OnsetDelay	Stimulus.OnsetTime	Stimulus.OnsetToOnsetTime	Stimulus.RESP	Stimulus.RT	TrialType
Wisconsin	1160	4	<?xml version="1.0"?>\n<Clock xmlns:dt="urn:schemas-microsoft-com:datatypes"><Description dt:dt="string">E-Prime Primary Realtime Clock</Description><StartTime><Timestamp dt:dt="int">0</Timestamp><DateUtc dt:dt="string">2023-02-11T03:11:32Z</DateUtc></StartTime><FrequencyChanges><FrequencyChange><Frequency dt:dt="r8">2929843</Frequency><Timestamp dt:dt="r8">18156006879</Timestamp><Current dt:dt="r8">0</Current><DateUtc dt:dt="string">2023-02-11T03:11:32Z</DateUtc></FrequencyChange></FrequencyChanges></Clock>\n	Wisconsin-1160-4	59.956	1.0.0.562	1	976696428	Professional	2.0.10.356	2.0.10.356	02-11-2023	2/11/2023 3:11:33 AM	11:11:33	2.0.10.252	1	1	1	1				Practicebloc	List1	1	Button1.png	Button2.png	Button3.png	Button4.png	Greencircle3.png	顏色	z	0		0	20	27490	0		0	0							1	1	1	PracticeTrialProc	PracticeList	1	z	0	1	24838	0	z	2632																																						
Wisconsin	1160	4	<?xml version="1.0"?>\n<Clock xmlns:dt="urn:schemas-microsoft-com:datatypes"><Description dt:dt="string">E-Prime Primary Realtime Clock</Description><StartTime><Timestamp dt:dt="int">0</Timestamp><DateUtc dt:dt="string">2023-02-11T03:11:32Z</DateUtc></StartTime><FrequencyChanges><FrequencyChange><Frequency dt:dt="r8">2929843</Frequency><Timestamp dt:dt="r8">18156006879</Timestamp><Current dt:dt="r8">0</Current><DateUtc dt:dt="string">2023-02-11T03:11:32Z</DateUtc></FrequencyChange></FrequencyChanges></Clock>\n	Wisconsin-1160-4	59.956	1.0.0.562	1	976696428	Professional	2.0.10.356	2.0.10.356	02-11-2023	2/11/2023 3:11:33 AM	11:11:33	2.0.10.252	1	1	1	1				Practicebloc	List1	2	Button1.png	Button2.png	Button3.png	Button4.png	Redstar2.png	顏色	c	0		0	25	33144	0		0	0							2	1	2	PracticeTrialProc	PracticeList	0	c	0	1	30042	0	z	3075																																						
Wisconsin	1160	4	<?xml version="1.0"?>\n<Clock xmlns:dt="urn:schemas-microsoft-com:datatypes"><Description dt:dt="string">E-Prime Primary Realtime Clock</Description><StartTime><Timestamp dt:dt="int">0</Timestamp><DateUtc dt:dt="string">2023-02-11T03:11:32Z</DateUtc></StartTime><FrequencyChanges><FrequencyChange><Frequency dt:dt="r8">2929843</Frequency><Timestamp dt:dt="r8">18156006879</Timestamp><Current dt:dt="r8">0</Current><DateUtc dt:dt="string">2023-02-11T03:11:32Z</DateUtc></FrequencyChange></FrequencyChanges></Clock>\n	Wisconsin-1160-4	59.956	1.0.0.562	1	976696428	Professional	2.0.10.356	2.0.10.356	02-11-2023	2/11/2023 3:11:33 AM	11:11:33	2.0.10.252	1	1	1	1				Practicebloc	List1	3	Button1.png	Button2.png	Button3.png	Button4.png	Bluetriangle1.png	形狀	x	0		0	11	37914	0		0	0							3	1	3	PracticeTrialProc	PracticeList	1	x	0	1	35696	0	x	2205																																						
Wisconsin	1160	4	<?xml version="1.0"?>\n<Clock xmlns:dt="urn:schemas-microsoft-com:datatypes"><Description dt:dt="string">E-Prime Primary Realtime Clock</Description><StartTime><Timestamp dt:dt="int">0</Timestamp><DateUtc dt:dt="string">2023-02-11T03:11:32Z</DateUtc></StartTime><FrequencyChanges><FrequencyChange><Frequency dt:dt="r8">2929843</Frequency><Timestamp dt:dt="r8">18156006879</Timestamp><Current dt:dt="r8">0</Current><DateUtc dt:dt="string">2023-02-11T03:11:32Z</DateUtc></FrequencyChange></FrequencyChanges></Clock>\n	Wisconsin-1160-4	59.956	1.0.0.562	1	976696428	Professional	2.0.10.356	2.0.10.356	02-11-2023	2/11/2023 3:11:33 AM	11:11:33	2.0.10.252	1	1	1	1				Practicebloc	List1	4	Button1.png	Button2.png	Button3.png	Button4.png	greenstar2.png	形狀	v	0		0	24	41417	0		0	0							4	1	4	PracticeTrialProc	PracticeList	1	v	0	1	40466	0	v	923																																						
Wisconsin	1160	4	<?xml version="1.0"?>\n<Clock xmlns:dt="urn:schemas-microsoft-com:datatypes"><Description dt:dt="string">E-Prime Primary Realtime Clock</Description><StartTime><Timestamp dt:dt="int">0</Timestamp><DateUtc dt:dt="string">2023-02-11T03:11:32Z</DateUtc></StartTime><FrequencyChanges><FrequencyChange><Frequency dt:dt="r8">2929843</Frequency><Timestamp dt:dt="r8">18156006879</Timestamp><Current dt:dt="r8">0</Current><DateUtc dt:dt="string">2023-02-11T03:11:32Z</DateUtc></FrequencyChange></FrequencyChanges></Clock>\n	Wisconsin-1160-4	59.956	1.0.0.562	1	976696428	Professional	2.0.10.356	2.0.10.356	02-11-2023	2/11/2023 3:11:33 AM	11:11:33	2.0.10.252	1	1	1	1				Practicebloc	List1	5	Button1.png	Button2.png	Button3.png	Button4.png	BlueCross4.png	數目	x	0		0	21	45603	0		0	0							5	1	5	PracticeTrialProc	PracticeList	1	x	0	1	43969	0	x	1612																																						
Wisconsin	1160	4	<?xml version="1.0"?>\n<Clock xmlns:dt="urn:schemas-microsoft-com:datatypes"><Description dt:dt="string">E-Prime Primary Realtime Clock</Description><StartTime><Timestamp dt:dt="int">0</Timestamp><DateUtc dt:dt="string">2023-02-11T03:11:32Z</DateUtc></StartTime><FrequencyChanges><FrequencyChange><Frequency dt:dt="r8">2929843</Frequency><Timestamp dt:dt="r8">18156006879</Timestamp><Current dt:dt="r8">0</Current><DateUtc dt:dt="string">2023-02-11T03:11:32Z</DateUtc></FrequencyChange></FrequencyChanges></Clock>\n	Wisconsin-1160-4	59.956	1.0.0.562	1	976696428	Professional	2.0.10.356	2.0.10.356	02-11-2023	2/11/2023 3:11:33 AM	11:11:33	2.0.10.252	1	1	1	1				Practicebloc	List1	6	Button1.png	Button2.png	Button3.png	Button4.png	yellowcircle2.png	數目	z	0		0	24	48822	0		0	0							6	1	6	PracticeTrialProc	PracticeList	1	z	0	1	48155	0	z	642																																						
Wisconsin	1160	4	<?xml version="1.0"?>\n<Clock xmlns:dt="urn:schemas-microsoft-com:datatypes"><Description dt:dt="string">E-Prime Primary Realtime Clock</Description><StartTime><Timestamp dt:dt="int">0</Timestamp><DateUtc dt:dt="string">2023-02-11T03:11:32Z</DateUtc></StartTime><FrequencyChanges><FrequencyChange><Frequency dt:dt="r8">2929843</Frequency><Timestamp dt:dt="r8">18156006879</Timestamp><Current dt:dt="r8">0</Current><DateUtc dt:dt="string">2023-02-11T03:11:32Z</DateUtc></FrequencyChange></FrequencyChanges></Clock>\n	Wisconsin-1160-4	59.956	1.0.0.562	1	976696428	Professional	2.0.10.356	2.0.10.356	02-11-2023	2/11/2023 3:11:33 AM	11:11:33	2.0.10.252	2				2	1	1	BlockProc2	List3	1																				2	1	1				NumberProc2	List4									1	Button1.png	Button2.png	Button3.png	Button4.png	Bluetriangle4.png							x	0				3	1	1	0	TrialProc	NumberList1							1	x	0	1	206871	0	x	941	number
Wisconsin	1160	4	<?xml version="1.0"?>\n<Clock xmlns:dt="urn:schemas-microsoft-com:datatypes"><Description dt:dt="string">E-Prime Primary Realtime Clock</Description><StartTime><Timestamp dt:dt="int">0</Timestamp><DateUtc dt:dt="string">2023-02-11T03:11:32Z</DateUtc></StartTime><FrequencyChanges><FrequencyChange><Frequency dt:dt="r8">2929843</Frequency><Timestamp dt:dt="r8">18156006879</Timestamp><Current dt:dt="r8">0</Current><DateUtc dt:dt="string">2023-02-11T03:11:32Z</DateUtc></FrequencyChange></FrequencyChanges></Clock>\n	Wisconsin-1160-4	59.956	1.0.0.562	1	976696428	Professional	2.0.10.356	2.0.10.356	02-11-2023	2/11/2023 3:11:33 AM	11:11:33	2.0.10.252	2				2	1	1	BlockProc2	List3	1																				2	1	1				NumberProc2	List4									2	Button1.png	Button2.png	Button3.png	Button4.png	Greencross2.png							z	0				4	1	2	0	TrialProc	NumberList1							1	z	0	1	210357	0	z	1279	number
Wisconsin	1160	4	<?xml version="1.0"?>\n<Clock xmlns:dt="urn:schemas-microsoft-com:datatypes"><Description dt:dt="string">E-Prime Primary Realtime Clock</Description><StartTime><Timestamp dt:dt="int">0</Timestamp><DateUtc dt:dt="string">2023-02-11T03:11:32Z</DateUtc></StartTime><FrequencyChanges><FrequencyChange><Frequency dt:dt="r8">2929843</Frequency><Timestamp dt:dt="r8">18156006879</Timestamp><Current dt:dt="r8">0</Current><DateUtc dt:dt="string">2023-02-11T03:11:32Z</DateUtc></FrequencyChange></FrequencyChanges></Clock>\n	Wisconsin-1160-4	59.956	1.0.0.562	1	976696428	Professional	2.0.10.356	2.0.10.356	02-11-2023	2/11/2023 3:11:33 AM	11:11:33	2.0.10.252	2				2	1	1	BlockProc2	List3	1																				2	1	1				NumberProc2	List4									3	Button1.png	Button2.png	Button3.png	Button4.png	Yellowtriangle2.png							z	0				10	1	3	0	TrialProc	NumberList1							1	z	0	1	214176	0	z	996	number
Wisconsin	1160	4	<?xml version="1.0"?>\n<Clock xmlns:dt="urn:schemas-microsoft-com:datatypes"><Description dt:dt="string">E-Prime Primary Realtime Clock</Description><StartTime><Timestamp dt:dt="int">0</Timestamp><DateUtc dt:dt="string">2023-02-11T03:11:32Z</DateUtc></StartTime><FrequencyChanges><FrequencyChange><Frequency dt:dt="r8">2929843</Frequency><Timestamp dt:dt="r8">18156006879</Timestamp><Current dt:dt="r8">0</Current><DateUtc dt:dt="string">2023-02-11T03:11:32Z</DateUtc></FrequencyChange></FrequencyChanges></Clock>\n	Wisconsin-1160-4	59.956	1.0.0.562	1	976696428	Professional	2.0.10.356	2.0.10.356	02-11-2023	2/11/2023 3:11:33 AM	11:11:33	2.0.10.252	2				2	1	1	BlockProc2	List3	1																				2	1	1				NumberProc2	List4									4	Button1.png	Button2.png	Button3.png	Button4.png	Yellowcross2.png							z	0				9	1	4	0	TrialProc	NumberList1							1	z	0	1	217712	0	z	1476	number
Wisconsin	1160	4	<?xml version="1.0"?>\n<Clock xmlns:dt="urn:schemas-microsoft-com:datatypes"><Description dt:dt="string">E-Prime Primary Realtime Clock</Description><StartTime><Timestamp dt:dt="int">0</Timestamp><DateUtc dt:dt="string">2023-02-11T03:11:32Z</DateUtc></StartTime><FrequencyChanges><FrequencyChange><Frequency dt:dt="r8">2929843</Frequency><Timestamp dt:dt="r8">18156006879</Timestamp><Current dt:dt="r8">0</Current><DateUtc dt:dt="string">2023-02-11T03:11:32Z</DateUtc></FrequencyChange></FrequencyChanges></Clock>\n	Wisconsin-1160-4	59.956	1.0.0.562	1	976696428	Professional	2.0.10.356	2.0.10.356	02-11-2023	2/11/2023 3:11:33 AM	11:11:33	2.0.10.252	2				2	1	1	BlockProc2	List3	1																				2	1	1				NumberProc2	List4									5	Button1.png	Button2.png	Button3.png	Button4.png	Redtriangle2.png							z	0				7	1	5	0	TrialProc	NumberList1							1	z	0	1	221732	0	z	799	number
Wisconsin	1160	4	<?xml version="1.0"?>\n<Clock xmlns:dt="urn:schemas-microsoft-com:datatypes"><Description dt:dt="string">E-Prime Primary Realtime Clock</Description><StartTime><Timestamp dt:dt="int">0</Timestamp><DateUtc dt:dt="string">2023-02-11T03:11:32Z</DateUtc></StartTime><FrequencyChanges><FrequencyChange><Frequency dt:dt="r8">2929843</Frequency><Timestamp dt:dt="r8">18156006879</Timestamp><Current dt:dt="r8">0</Current><DateUtc dt:dt="string">2023-02-11T03:11:32Z</DateUtc></FrequencyChange></FrequencyChanges></Clock>\n	Wisconsin-1160-4	59.956	1.0.0.562	1	976696428	Professional	2.0.10.356	2.0.10.356	02-11-2023	2/11/2023 3:11:33 AM	11:11:33	2.0.10.252	2				2	1	1	BlockProc2	List3	1																				2	1	1				NumberProc2	List4									6	Button1.png	Button2.png	Button3.png	Button4.png	Bluestar4.png							x	0				2	1	6	0	TrialProc	NumberList1							1	x	1	0	225067	0	x	888	number
Wisconsin	1160	4	<?xml version="1.0"?>\n<Clock xmlns:dt="urn:schemas-microsoft-com:datatypes"><Description dt:dt="string">E-Prime Primary Realtime Clock</Description><StartTime><Timestamp dt:dt="int">0</Timestamp><DateUtc dt:dt="string">2023-02-11T03:11:32Z</DateUtc></StartTime><FrequencyChanges><FrequencyChange><Frequency dt:dt="r8">2929843</Frequency><Timestamp dt:dt="r8">18156006879</Timestamp><Current dt:dt="r8">0</Current><DateUtc dt:dt="string">2023-02-11T03:11:32Z</DateUtc></FrequencyChange></FrequencyChanges></Clock>\n	Wisconsin-1160-4	59.956	1.0.0.562	1	976696428	Professional	2.0.10.356	2.0.10.356	02-11-2023	2/11/2023 3:11:33 AM	11:11:33	2.0.10.252	2				2	1	1	BlockProc2	List3	1																				2	1	1				NumberProc2	List4									7	Button1.png	Button2.png	Button3.png	Button4.png	Bluecross3.png							c	0				1	1	7	0	TrialProc	NumberList1							1	c	0	1	228487	0	c	812	number
Wisconsin	1160	4	<?xml version="1.0"?>\n<Clock xmlns:dt="urn:schemas-microsoft-com:datatypes"><Description dt:dt="string">E-Prime Primary Realtime Clock</Description><StartTime><Timestamp dt:dt="int">0</Timestamp><DateUtc dt:dt="string">2023-02-11T03:11:32Z</DateUtc></StartTime><FrequencyChanges><FrequencyChange><Frequency dt:dt="r8">2929843</Frequency><Timestamp dt:dt="r8">18156006879</Timestamp><Current dt:dt="r8">0</Current><DateUtc dt:dt="string">2023-02-11T03:11:32Z</DateUtc></FrequencyChange></FrequencyChanges></Clock>\n	Wisconsin-1160-4	59.956	1.0.0.562	1	976696428	Professional	2.0.10.356	2.0.10.356	02-11-2023	2/11/2023 3:11:33 AM	11:11:33	2.0.10.252	2				2	1	1	BlockProc2	List3	1																				2	1	1				NumberProc2	List4									8	Button1.png	Button2.png	Button3.png	Button4.png	Greenstar1.png							v	0				5	1	8	0	TrialProc	NumberList1							1	v	0	1	231839	0	v	676	number
Wisconsin	1160	4	<?xml version="1.0"?>\n<Clock xmlns:dt="urn:schemas-microsoft-com:datatypes"><Description dt:dt="string">E-Prime Primary Realtime Clock</Description><StartTime><Timestamp dt:dt="int">0</Timestamp><DateUtc dt:dt="string">2023-02-11T03:11:32Z</DateUtc></StartTime><FrequencyChanges><FrequencyChange><Frequency dt:dt="r8">2929843</Frequency><Timestamp dt:dt="r8">18156006879</Timestamp><Current dt:dt="r8">0</Current><DateUtc dt:dt="string">2023-02-11T03:11:32Z</DateUtc></FrequencyChange></FrequencyChanges></Clock>\n	Wisconsin-1160-4	59.956	1.0.0.562	1	976696428	Professional	2.0.10.356	2.0.10.356	02-11-2023	2/11/2023 3:11:33 AM	11:11:33	2.0.10.252	2				2	1	1	BlockProc2	List3	1																				2	1	1				NumberProc2	List4									9	Button1.png	Button2.png	Button3.png	Button4.png	yellowcircle4.png							x	0				8	1	9	0	TrialProc	NumberList1							1	x	0	1	235058	0	x	577	number
Wisconsin	1160	4	<?xml version="1.0"?>\n<Clock xmlns:dt="urn:schemas-microsoft-com:datatypes"><Description dt:dt="string">E-Prime Primary Realtime Clock</Description><StartTime><Timestamp dt:dt="int">0</Timestamp><DateUtc dt:dt="string">2023-02-11T03:11:32Z</DateUtc></StartTime><FrequencyChanges><FrequencyChange><Frequency dt:dt="r8">2929843</Frequency><Timestamp dt:dt="r8">18156006879</Timestamp><Current dt:dt="r8">0</Current><DateUtc dt:dt="string">2023-02-11T03:11:32Z</DateUtc></FrequencyChange></FrequencyChanges></Clock>\n	Wisconsin-1160-4	59.956	1.0.0.562	1	976696428	Professional	2.0.10.356	2.0.10.356	02-11-2023	2/11/2023 3:11:33 AM	11:11:33	2.0.10.252	2				2	1	1	BlockProc2	List3	1																				2	1	1				NumberProc2	List4									10	Button1.png	Button2.png	Button3.png	Button4.png	Redstar1.png							v	0				6	1	10	0	TrialProc	NumberList1							1	v	0	1	238177	0	v	1169	number
Wisconsin	1160	4	<?xml version="1.0"?>\n<Clock xmlns:dt="urn:schemas-microsoft-com:datatypes"><Description dt:dt="string">E-Prime Primary Realtime Clock</Description><StartTime><Timestamp dt:dt="int">0</Timestamp><DateUtc dt:dt="string">2023-02-11T03:11:32Z</DateUtc></StartTime><FrequencyChanges><FrequencyChange><Frequency dt:dt="r8">2929843</Frequency><Timestamp dt:dt="r8">18156006879</Timestamp><Current dt:dt="r8">0</Current><DateUtc dt:dt="string">2023-02-11T03:11:32Z</DateUtc></FrequencyChange></FrequencyChanges></Clock>\n	Wisconsin-1160-4	59.956	1.0.0.562	1	976696428	Professional	2.0.10.356	2.0.10.356	02-11-2023	2/11/2023 3:11:33 AM	11:11:33	2.0.10.252	2				2	1	1	BlockProc2	List3	2																				1	1	2				ColorProc2	List4									1	BUTTON1.png	BUTTON2.PNG	BUTTON3.png	BUTTON4.png	greencross4.png				4	1	1	z	0							0	TrialProc	ColorList2							1	z	0	1	241880	0	z	2826	color
Wisconsin	1160	4	<?xml version="1.0"?>\n<Clock xmlns:dt="urn:schemas-microsoft-com:datatypes"><Description dt:dt="string">E-Prime Primary Realtime Clock</Description><StartTime><Timestamp dt:dt="int">0</Timestamp><DateUtc dt:dt="string">2023-02-11T03:11:32Z</DateUtc></StartTime><FrequencyChanges><FrequencyChange><Frequency dt:dt="r8">2929843</Frequency><Timestamp dt:dt="r8">18156006879</Timestamp><Current dt:dt="r8">0</Current><DateUtc dt:dt="string">2023-02-11T03:11:32Z</DateUtc></FrequencyChange></FrequencyChanges></Clock>\n	Wisconsin-1160-4	59.956	1.0.0.562	1	976696428	Professional	2.0.10.356	2.0.10.356	02-11-2023	2/11/2023 3:11:33 AM	11:11:33	2.0.10.252	2				2	1	1	BlockProc2	List3	2																				1	1	2				ColorProc2	List4									2	BUTTON1.png	BUTTON2.PNG	BUTTON3.png	BUTTON4.png	Greencircle1.png				3	1	2	z	0							0	TrialProc	ColorList2							1	z	0	1	247234	0	z	624	color
Wisconsin	1160	4	<?xml version="1.0"?>\n<Clock xmlns:dt="urn:schemas-microsoft-com:datatypes"><Description dt:dt="string">E-Prime Primary Realtime Clock</Description><StartTime><Timestamp dt:dt="int">0</Timestamp><DateUtc dt:dt="string">2023-02-11T03:11:32Z</DateUtc></StartTime><FrequencyChanges><FrequencyChange><Frequency dt:dt="r8">2929843</Frequency><Timestamp dt:dt="r8">18156006879</Timestamp><Current dt:dt="r8">0</Current><DateUtc dt:dt="string">2023-02-11T03:11:32Z</DateUtc></FrequencyChange></FrequencyChanges></Clock>\n	Wisconsin-1160-4	59.956	1.0.0.562	1	976696428	Professional	2.0.10.356	2.0.10.356	02-11-2023	2/11/2023 3:11:33 AM	11:11:33	2.0.10.252	2				2	1	1	BlockProc2	List3	2																				1	1	2				ColorProc2	List4									3	BUTTON1.png	BUTTON2.PNG	BUTTON3.png	BUTTON4.png	bluestar3.png				2	1	3	v	0							0	TrialProc	ColorList2							1	v	0	1	250386	0	v	816	color
Wisconsin	1160	4	<?xml version="1.0"?>\n<Clock xmlns:dt="urn:schemas-microsoft-com:datatypes"><Description dt:dt="string">E-Prime Primary Realtime Clock</Description><StartTime><Timestamp dt:dt="int">0</Timestamp><DateUtc dt:dt="string">2023-02-11T03:11:32Z</DateUtc></StartTime><FrequencyChanges><FrequencyChange><Frequency dt:dt="r8">2929843</Frequency><Timestamp dt:dt="r8">18156006879</Timestamp><Current dt:dt="r8">0</Current><DateUtc dt:dt="string">2023-02-11T03:11:32Z</DateUtc></FrequencyChange></FrequencyChanges></Clock>\n	Wisconsin-1160-4	59.956	1.0.0.562	1	976696428	Professional	2.0.10.356	2.0.10.356	02-11-2023	2/11/2023 3:11:33 AM	11:11:33	2.0.10.252	2				2	1	1	BlockProc2	List3	2																				1	1	2				ColorProc2	List4									4	BUTTON1.png	BUTTON2.PNG	BUTTON3.png	BUTTON4.png	redstar4.png				8	1	4	c	0							0	TrialProc	ColorList2							1	c	0	0	253738	0	c	936	color
Wisconsin	1160	4	<?xml version="1.0"?>\n<Clock xmlns:dt="urn:schemas-microsoft-com:datatypes"><Description dt:dt="string">E-Prime Primary Realtime Clock</Description><StartTime><Timestamp dt:dt="int">0</Timestamp><DateUtc dt:dt="string">2023-02-11T03:11:32Z</DateUtc></StartTime><FrequencyChanges><FrequencyChange><Frequency dt:dt="r8">2929843</Frequency><Timestamp dt:dt="r8">18156006879</Timestamp><Current dt:dt="r8">0</Current><DateUtc dt:dt="string">2023-02-11T03:11:32Z</DateUtc></FrequencyChange></FrequencyChanges></Clock>\n	Wisconsin-1160-4	59.956	1.0.0.562	1	976696428	Professional	2.0.10.356	2.0.10.356	02-11-2023	2/11/2023 3:11:33 AM	11:11:33	2.0.10.252	2				2	1	1	BlockProc2	List3	2																				1	1	2				ColorProc2	List4									5	BUTTON1.png	BUTTON2.PNG	BUTTON3.png	BUTTON4.png	bluecross1.png				1	1	5	v	0							0	TrialProc	ColorList2							1	v	0	1	257208	0	v	649	color
Wisconsin	1160	4	<?xml version="1.0"?>\n<Clock xmlns:dt="urn:schemas-microsoft-com:datatypes"><Description dt:dt="string">E-Prime Primary Realtime Clock</Description><StartTime><Timestamp dt:dt="int">0</Timestamp><DateUtc dt:dt="string">2023-02-11T03:11:32Z</DateUtc></StartTime><FrequencyChanges><FrequencyChange><Frequency dt:dt="r8">2929843</Frequency><Timestamp dt:dt="r8">18156006879</Timestamp><Current dt:dt="r8">0</Current><DateUtc dt:dt="string">2023-02-11T03:11:32Z</DateUtc></FrequencyChange></FrequencyChanges></Clock>\n	Wisconsin-1160-4	59.956	1.0.0.562	1	976696428	Professional	2.0.10.356	2.0.10.356	02-11-2023	2/11/2023 3:11:33 AM	11:11:33	2.0.10.252	2				2	1	1	BlockProc2	List3	2																				1	1	2				ColorProc2	List4									6	BUTTON1.png	BUTTON2.PNG	BUTTON3.png	BUTTON4.png	Redcircle2.png				7	1	6	c	0							0	TrialProc	ColorList2							1	c	0	0	260393	0	c	584	color
Wisconsin	1160	4	<?xml version="1.0"?>\n<Clock xmlns:dt="urn:schemas-microsoft-com:datatypes"><Description dt:dt="string">E-Prime Primary Realtime Clock</Description><StartTime><Timestamp dt:dt="int">0</Timestamp><DateUtc dt:dt="string">2023-02-11T03:11:32Z</DateUtc></StartTime><FrequencyChanges><FrequencyChange><Frequency dt:dt="r8">2929843</Frequency><Timestamp dt:dt="r8">18156006879</Timestamp><Current dt:dt="r8">0</Current><DateUtc dt:dt="string">2023-02-11T03:11:32Z</DateUtc></FrequencyChange></FrequencyChanges></Clock>\n	Wisconsin-1160-4	59.956	1.0.0.562	1	976696428	Professional	2.0.10.356	2.0.10.356	02-11-2023	2/11/2023 3:11:33 AM	11:11:33	2.0.10.252	2				2	1	1	BlockProc2	List3	2																				1	1	2				ColorProc2	List4									7	BUTTON1.png	BUTTON2.PNG	BUTTON3.png	BUTTON4.png	yellowtriangle3.png				10	1	7	x	0							0	TrialProc	ColorList2							1	x	0	1	263512	0	x	553	color
Wisconsin	1160	4	<?xml version="1.0"?>\n<Clock xmlns:dt="urn:schemas-microsoft-com:datatypes"><Description dt:dt="string">E-Prime Primary Realtime Clock</Description><StartTime><Timestamp dt:dt="int">0</Timestamp><DateUtc dt:dt="string">2023-02-11T03:11:32Z</DateUtc></StartTime><FrequencyChanges><FrequencyChange><Frequency dt:dt="r8">2929843</Frequency><Timestamp dt:dt="r8">18156006879</Timestamp><Current dt:dt="r8">0</Current><DateUtc dt:dt="string">2023-02-11T03:11:32Z</DateUtc></FrequencyChange></FrequencyChanges></Clock>\n	Wisconsin-1160-4	59.956	1.0.0.562	1	976696428	Professional	2.0.10.356	2.0.10.356	02-11-2023	2/11/2023 3:11:33 AM	11:11:33	2.0.10.252	2				2	1	1	BlockProc2	List3	2																				1	1	2				ColorProc2	List4									8	BUTTON1.png	BUTTON2.PNG	BUTTON3.png	BUTTON4.png	greenstar4.png				5	1	8	z	0							0	TrialProc	ColorList2							1	z	0	1	266598	0	z	539	color
Wisconsin	1160	4	<?xml version="1.0"?>\n<Clock xmlns:dt="urn:schemas-microsoft-com:datatypes"><Description dt:dt="string">E-Prime Primary Realtime Clock</Description><StartTime><Timestamp dt:dt="int">0</Timestamp><DateUtc dt:dt="string">2023-02-11T03:11:32Z</DateUtc></StartTime><FrequencyChanges><FrequencyChange><Frequency dt:dt="r8">2929843</Frequency><Timestamp dt:dt="r8">18156006879</Timestamp><Current dt:dt="r8">0</Current><DateUtc dt:dt="string">2023-02-11T03:11:32Z</DateUtc></FrequencyChange></FrequencyChanges></Clock>\n	Wisconsin-1160-4	59.956	1.0.0.562	1	976696428	Professional	2.0.10.356	2.0.10.356	02-11-2023	2/11/2023 3:11:33 AM	11:11:33	2.0.10.252	2				2	1	1	BlockProc2	List3	2																				1	1	2				ColorProc2	List4									9	BUTTON1.png	BUTTON2.PNG	BUTTON3.png	BUTTON4.png	yellowcircle2.png				9	1	9	x	0							0	TrialProc	ColorList2							1	x	0	1	269667	0	x	622	color
Wisconsin	1160	4	<?xml version="1.0"?>\n<Clock xmlns:dt="urn:schemas-microsoft-com:datatypes"><Description dt:dt="string">E-Prime Primary Realtime Clock</Description><StartTime><Timestamp dt:dt="int">0</Timestamp><DateUtc dt:dt="string">2023-02-11T03:11:32Z</DateUtc></StartTime><FrequencyChanges><FrequencyChange><Frequency dt:dt="r8">2929843</Frequency><Timestamp dt:dt="r8">18156006879</Timestamp><Current dt:dt="r8">0</Current><DateUtc dt:dt="string">2023-02-11T03:11:32Z</DateUtc></FrequencyChange></FrequencyChanges></Clock>\n	Wisconsin-1160-4	59.956	1.0.0.562	1	976696428	Professional	2.0.10.356	2.0.10.356	02-11-2023	2/11/2023 3:11:33 AM	11:11:33	2.0.10.252	2				2	1	1	BlockProc2	List3	2																				1	1	2				ColorProc2	List4									10	BUTTON1.png	BUTTON2.PNG	BUTTON3.png	BUTTON4.png	greentriangle2.png				6	1	10	z	0							0	TrialProc	ColorList2							1	z	0	1	272819	0	z	558	color
Wisconsin	1160	4	<?xml version="1.0"?>\n<Clock xmlns:dt="urn:schemas-microsoft-com:datatypes"><Description dt:dt="string">E-Prime Primary Realtime Clock</Description><StartTime><Timestamp dt:dt="int">0</Timestamp><DateUtc dt:dt="string">2023-02-11T03:11:32Z</DateUtc></StartTime><FrequencyChanges><FrequencyChange><Frequency dt:dt="r8">2929843</Frequency><Timestamp dt:dt="r8">18156006879</Timestamp><Current dt:dt="r8">0</Current><DateUtc dt:dt="string">2023-02-11T03:11:32Z</DateUtc></FrequencyChange></FrequencyChanges></Clock>\n	Wisconsin-1160-4	59.956	1.0.0.562	1	976696428	Professional	2.0.10.356	2.0.10.356	02-11-2023	2/11/2023 3:11:33 AM	11:11:33	2.0.10.252	2				2	1	1	BlockProc2	List3	3																				3	1	3				ShapeProc2	List4									1	Button1.png	Button2.png	Button3.png	Button4.png	Bluecircle3.png							z	0							0	TrialProc	ShapeList1				1	1	1	1	z	0	0	275921	0	z	2543	Shape
Wisconsin	1160	4	<?xml version="1.0"?>\n<Clock xmlns:dt="urn:schemas-microsoft-com:datatypes"><Description dt:dt="string">E-Prime Primary Realtime Clock</Description><StartTime><Timestamp dt:dt="int">0</Timestamp><DateUtc dt:dt="string">2023-02-11T03:11:32Z</DateUtc></StartTime><FrequencyChanges><FrequencyChange><Frequency dt:dt="r8">2929843</Frequency><Timestamp dt:dt="r8">18156006879</Timestamp><Current dt:dt="r8">0</Current><DateUtc dt:dt="string">2023-02-11T03:11:32Z</DateUtc></FrequencyChange></FrequencyChanges></Clock>\n	Wisconsin-1160-4	59.956	1.0.0.562	1	976696428	Professional	2.0.10.356	2.0.10.356	02-11-2023	2/11/2023 3:11:33 AM	11:11:33	2.0.10.252	2				2	1	1	BlockProc2	List3	3																				3	1	3				ShapeProc2	List4									2	Button1.png	Button2.png	Button3.png	Button4.png	Bluetriangle2.png							x	0							0	TrialProc	ShapeList1				2	1	2	1	x	0	0	281008	0	x	1200	Shape
Wisconsin	1160	4	<?xml version="1.0"?>\n<Clock xmlns:dt="urn:schemas-microsoft-com:datatypes"><Description dt:dt="string">E-Prime Primary Realtime Clock</Description><StartTime><Timestamp dt:dt="int">0</Timestamp><DateUtc dt:dt="string">2023-02-11T03:11:32Z</DateUtc></StartTime><FrequencyChanges><FrequencyChange><Frequency dt:dt="r8">2929843</Frequency><Timestamp dt:dt="r8">18156006879</Timestamp><Current dt:dt="r8">0</Current><DateUtc dt:dt="string">2023-02-11T03:11:32Z</DateUtc></FrequencyChange></FrequencyChanges></Clock>\n	Wisconsin-1160-4	59.956	1.0.0.562	1	976696428	Professional	2.0.10.356	2.0.10.356	02-11-2023	2/11/2023 3:11:33 AM	11:11:33	2.0.10.252	2				2	1	1	BlockProc2	List3	3																				3	1	3				ShapeProc2	List4									3	Button1.png	Button2.png	Button3.png	Button4.png	Redstar3.png							v	1							0	TrialProc	ShapeList1				6	1	3	0	v	0	0	284744	0	c	760	Shape
Wisconsin	1160	4	<?xml version="1.0"?>\n<Clock xmlns:dt="urn:schemas-microsoft-com:datatypes"><Description dt:dt="string">E-Prime Primary Realtime Clock</Description><StartTime><Timestamp dt:dt="int">0</Timestamp><DateUtc dt:dt="string">2023-02-11T03:11:32Z</DateUtc></StartTime><FrequencyChanges><FrequencyChange><Frequency dt:dt="r8">2929843</Frequency><Timestamp dt:dt="r8">18156006879</Timestamp><Current dt:dt="r8">0</Current><DateUtc dt:dt="string">2023-02-11T03:11:32Z</DateUtc></FrequencyChange></FrequencyChanges></Clock>\n	Wisconsin-1160-4	59.956	1.0.0.562	1	976696428	Professional	2.0.10.356	2.0.10.356	02-11-2023	2/11/2023 3:11:33 AM	11:11:33	2.0.10.252	2				2	1	1	BlockProc2	List3	3																				3	1	3				ShapeProc2	List4									4	Button1.png	Button2.png	Button3.png	Button4.png	Greenstar3.png							v	0							0	TrialProc	ShapeList1				3	1	4	1	v	1	0	288063	0	v	1425	Shape
Wisconsin	1160	4	<?xml version="1.0"?>\n<Clock xmlns:dt="urn:schemas-microsoft-com:datatypes"><Description dt:dt="string">E-Prime Primary Realtime Clock</Description><StartTime><Timestamp dt:dt="int">0</Timestamp><DateUtc dt:dt="string">2023-02-11T03:11:32Z</DateUtc></StartTime><FrequencyChanges><FrequencyChange><Frequency dt:dt="r8">2929843</Frequency><Timestamp dt:dt="r8">18156006879</Timestamp><Current dt:dt="r8">0</Current><DateUtc dt:dt="string">2023-02-11T03:11:32Z</DateUtc></FrequencyChange></FrequencyChanges></Clock>\n	Wisconsin-1160-4	59.956	1.0.0.562	1	976696428	Professional	2.0.10.356	2.0.10.356	02-11-2023	2/11/2023 3:11:33 AM	11:11:33	2.0.10.252	2				2	1	1	BlockProc2	List3	3																				3	1	3				ShapeProc2	List4									5	Button1.png	Button2.png	Button3.png	Button4.png	Yellowstar2.png							v	0							0	TrialProc	ShapeList1				9	1	5	1	v	0	0	292016	0	v	672	Shape
Wisconsin	1160	4	<?xml version="1.0"?>\n<Clock xmlns:dt="urn:schemas-microsoft-com:datatypes"><Description dt:dt="string">E-Prime Primary Realtime Clock</Description><StartTime><Timestamp dt:dt="int">0</Timestamp><DateUtc dt:dt="string">2023-02-11T03:11:32Z</DateUtc></StartTime><FrequencyChanges><FrequencyChange><Frequency dt:dt="r8">2929843</Frequency><Timestamp dt:dt="r8">18156006879</Timestamp><Current dt:dt="r8">0</Current><DateUtc dt:dt="string">2023-02-11T03:11:32Z</DateUtc></FrequencyChange></FrequencyChanges></Clock>\n	Wisconsin-1160-4	59.956	1.0.0.562	1	976696428	Professional	2.0.10.356	2.0.10.356	02-11-2023	2/11/2023 3:11:33 AM	11:11:33	2.0.10.252	2				2	1	1	BlockProc2	List3	3																				3	1	3				ShapeProc2	List4									6	Button1.png	Button2.png	Button3.png	Button4.png	yellowcross4.png							c	0							0	TrialProc	ShapeList1				8	1	6	1	c	0	1	295219	0	c	844	Shape
Wisconsin	1160	4	<?xml version="1.0"?>\n<Clock xmlns:dt="urn:schemas-microsoft-com:datatypes"><Description dt:dt="string">E-Prime Primary Realtime Clock</Description><StartTime><Timestamp dt:dt="int">0</Timestamp><DateUtc dt:dt="string">2023-02-11T03:11:32Z</DateUtc></StartTime><FrequencyChanges><FrequencyChange><Frequency dt:dt="r8">2929843</Frequency><Timestamp dt:dt="r8">18156006879</Timestamp><Current dt:dt="r8">0</Current><DateUtc dt:dt="string">2023-02-11T03:11:32Z</DateUtc></FrequencyChange></FrequencyChanges></Clock>\n	Wisconsin-1160-4	59.956	1.0.0.562	1	976696428	Professional	2.0.10.356	2.0.10.356	02-11-2023	2/11/2023 3:11:33 AM	11:11:33	2.0.10.252	2				2	1	1	BlockProc2	List3	3																				3	1	3				ShapeProc2	List4									7	Button1.png	Button2.png	Button3.png	Button4.png	Redtriangle3.png							x	0							0	TrialProc	ShapeList1				7	1	7	1	x	1	0	298604	0	x	723	Shape
Wisconsin	1160	4	<?xml version="1.0"?>\n<Clock xmlns:dt="urn:schemas-microsoft-com:datatypes"><Description dt:dt="string">E-Prime Primary Realtime Clock</Description><StartTime><Timestamp dt:dt="int">0</Timestamp><DateUtc dt:dt="string">2023-02-11T03:11:32Z</DateUtc></StartTime><FrequencyChanges><FrequencyChange><Frequency dt:dt="r8">2929843</Frequency><Timestamp dt:dt="r8">18156006879</Timestamp><Current dt:dt="r8">0</Current><DateUtc dt:dt="string">2023-02-11T03:11:32Z</DateUtc></FrequencyChange></FrequencyChanges></Clock>\n	Wisconsin-1160-4	59.956	1.0.0.562	1	976696428	Professional	2.0.10.356	2.0.10.356	02-11-2023	2/11/2023 3:11:33 AM	11:11:33	2.0.10.252	2				2	1	1	BlockProc2	List3	3																				3	1	3				ShapeProc2	List4									8	Button1.png	Button2.png	Button3.png	Button4.png	Redcross2.png							c	0							0	TrialProc	ShapeList1				5	1	8	1	c	0	1	301857	0	c	670	Shape
Wisconsin	1160	4	<?xml version="1.0"?>\n<Clock xmlns:dt="urn:schemas-microsoft-com:datatypes"><Description dt:dt="string">E-Prime Primary Realtime Clock</Description><StartTime><Timestamp dt:dt="int">0</Timestamp><DateUtc dt:dt="string">2023-02-11T03:11:32Z</DateUtc></StartTime><FrequencyChanges><FrequencyChange><Frequency dt:dt="r8">2929843</Frequency><Timestamp dt:dt="r8">18156006879</Timestamp><Current dt:dt="r8">0</Current><DateUtc dt:dt="string">2023-02-11T03:11:32Z</DateUtc></FrequencyChange></FrequencyChanges></Clock>\n	Wisconsin-1160-4	59.956	1.0.0.562	1	976696428	Professional	2.0.10.356	2.0.10.356	02-11-2023	2/11/2023 3:11:33 AM	11:11:33	2.0.10.252	2				2	1	1	BlockProc2	List3	3																				3	1	3				ShapeProc2	List4									9	Button1.png	Button2.png	Button3.png	Button4.png	Yellowtriangle1.png							x	0							0	TrialProc	ShapeList1				10	1	9	1	x	0	1	305059	0	x	732	Shape
Wisconsin	1160	4	<?xml version="1.0"?>\n<Clock xmlns:dt="urn:schemas-microsoft-com:datatypes"><Description dt:dt="string">E-Prime Primary Realtime Clock</Description><StartTime><Timestamp dt:dt="int">0</Timestamp><DateUtc dt:dt="string">2023-02-11T03:11:32Z</DateUtc></StartTime><FrequencyChanges><FrequencyChange><Frequency dt:dt="r8">2929843</Frequency><Timestamp dt:dt="r8">18156006879</Timestamp><Current dt:dt="r8">0</Current><DateUtc dt:dt="string">2023-02-11T03:11:32Z</DateUtc></FrequencyChange></FrequencyChanges></Clock>\n	Wisconsin-1160-4	59.956	1.0.0.562	1	976696428	Professional	2.0.10.356	2.0.10.356	02-11-2023	2/11/2023 3:11:33 AM	11:11:33	2.0.10.252	2				2	1	1	BlockProc2	List3	3																				3	1	3				ShapeProc2	List4									10	Button1.png	Button2.png	Button3.png	Button4.png	redcircle1.png							z	0							0	TrialProc	ShapeList1				4	1	10	1	z	0	1	308328	0	z	871	Shape
Wisconsin	1160	4	<?xml version="1.0"?>\n<Clock xmlns:dt="urn:schemas-microsoft-com:datatypes"><Description dt:dt="string">E-Prime Primary Realtime Clock</Description><StartTime><Timestamp dt:dt="int">0</Timestamp><DateUtc dt:dt="string">2023-02-11T03:11:32Z</DateUtc></StartTime><FrequencyChanges><FrequencyChange><Frequency dt:dt="r8">2929843</Frequency><Timestamp dt:dt="r8">18156006879</Timestamp><Current dt:dt="r8">0</Current><DateUtc dt:dt="string">2023-02-11T03:11:32Z</DateUtc></FrequencyChange></FrequencyChanges></Clock>\n	Wisconsin-1160-4	59.956	1.0.0.562	1	976696428	Professional	2.0.10.356	2.0.10.356	02-11-2023	2/11/2023 3:11:33 AM	11:11:33	2.0.10.252	3				1	1	2	BlockProc	List3	1																	1	1	1							ColorProc	List2									1	BUTTON1.png	BUTTON2.PNG	BUTTON3.png	BUTTON4.png	bluecircle1.png	1	1	1				v	1							0	TrialProc	ColorList							0	v	0	1	311731	0	z	764	color
Wisconsin	1160	4	<?xml version="1.0"?>\n<Clock xmlns:dt="urn:schemas-microsoft-com:datatypes"><Description dt:dt="string">E-Prime Primary Realtime Clock</Description><StartTime><Timestamp dt:dt="int">0</Timestamp><DateUtc dt:dt="string">2023-02-11T03:11:32Z</DateUtc></StartTime><FrequencyChanges><FrequencyChange><Frequency dt:dt="r8">2929843</Frequency><Timestamp dt:dt="r8">18156006879</Timestamp><Current dt:dt="r8">0</Current><DateUtc dt:dt="string">2023-02-11T03:11:32Z</DateUtc></FrequencyChange></FrequencyChanges></Clock>\n	Wisconsin-1160-4	59.956	1.0.0.562	1	976696428	Professional	2.0.10.356	2.0.10.356	02-11-2023	2/11/2023 3:11:33 AM	11:11:33	2.0.10.252	3				1	1	2	BlockProc	List3	1																	1	1	1							ColorProc	List2									2	BUTTON1.png	BUTTON2.PNG	BUTTON3.png	BUTTON4.png	bluetriangle3.png	3	1	2				v	0							0	TrialProc	ColorList							1	v	0	1	315033	0	v	1893	color
Wisconsin	1160	4	<?xml version="1.0"?>\n<Clock xmlns:dt="urn:schemas-microsoft-com:datatypes"><Description dt:dt="string">E-Prime Primary Realtime Clock</Description><StartTime><Timestamp dt:dt="int">0</Timestamp><DateUtc dt:dt="string">2023-02-11T03:11:32Z</DateUtc></StartTime><FrequencyChanges><FrequencyChange><Frequency dt:dt="r8">2929843</Frequency><Timestamp dt:dt="r8">18156006879</Timestamp><Current dt:dt="r8">0</Current><DateUtc dt:dt="string">2023-02-11T03:11:32Z</DateUtc></FrequencyChange></FrequencyChanges></Clock>\n	Wisconsin-1160-4	59.956	1.0.0.562	1	976696428	Professional	2.0.10.356	2.0.10.356	02-11-2023	2/11/2023 3:11:33 AM	11:11:33	2.0.10.252	3				1	1	2	BlockProc	List3	1																	1	1	1							ColorProc	List2									3	BUTTON1.png	BUTTON2.PNG	BUTTON3.png	BUTTON4.png	greenstar2.png	5	1	3				z	1							0	TrialProc	ColorList							0	z	0	1	319470	0	v	896	color
Wisconsin	1160	4	<?xml version="1.0"?>\n<Clock xmlns:dt="urn:schemas-microsoft-com:datatypes"><Description dt:dt="string">E-Prime Primary Realtime Clock</Description><StartTime><Timestamp dt:dt="int">0</Timestamp><DateUtc dt:dt="string">2023-02-11T03:11:32Z</DateUtc></StartTime><FrequencyChanges><FrequencyChange><Frequency dt:dt="r8">2929843</Frequency><Timestamp dt:dt="r8">18156006879</Timestamp><Current dt:dt="r8">0</Current><DateUtc dt:dt="string">2023-02-11T03:11:32Z</DateUtc></FrequencyChange></FrequencyChanges></Clock>\n	Wisconsin-1160-4	59.956	1.0.0.562	1	976696428	Professional	2.0.10.356	2.0.10.356	02-11-2023	2/11/2023 3:11:33 AM	11:11:33	2.0.10.252	3				1	1	2	BlockProc	List3	1																	1	1	1							ColorProc	List2									4	BUTTON1.png	BUTTON2.PNG	BUTTON3.png	BUTTON4.png	redcircle3.png	8	1	4				c	0							0	TrialProc	ColorList							1	c	0	1	322906	0	c	516	color
Wisconsin	1160	4	<?xml version="1.0"?>\n<Clock xmlns:dt="urn:schemas-microsoft-com:datatypes"><Description dt:dt="string">E-Prime Primary Realtime Clock</Description><StartTime><Timestamp dt:dt="int">0</Timestamp><DateUtc dt:dt="string">2023-02-11T03:11:32Z</DateUtc></StartTime><FrequencyChanges><FrequencyChange><Frequency dt:dt="r8">2929843</Frequency><Timestamp dt:dt="r8">18156006879</Timestamp><Current dt:dt="r8">0</Current><DateUtc dt:dt="string">2023-02-11T03:11:32Z</DateUtc></FrequencyChange></FrequencyChanges></Clock>\n	Wisconsin-1160-4	59.956	1.0.0.562	1	976696428	Professional	2.0.10.356	2.0.10.356	02-11-2023	2/11/2023 3:11:33 AM	11:11:33	2.0.10.252	3				1	1	2	BlockProc	List3	1																	1	1	1							ColorProc	List2									5	BUTTON1.png	BUTTON2.PNG	BUTTON3.png	BUTTON4.png	bluecross2.png	2	1	5				v	0							0	TrialProc	ColorList							1	v	0	1	325958	0	v	552	color
Wisconsin	1160	4	<?xml version="1.0"?>\n<Clock xmlns:dt="urn:schemas-microsoft-com:datatypes"><Description dt:dt="string">E-Prime Primary Realtime Clock</Description><StartTime><Timestamp dt:dt="int">0</Timestamp><DateUtc dt:dt="string">2023-02-11T03:11:32Z</DateUtc></StartTime><FrequencyChanges><FrequencyChange><Frequency dt:dt="r8">2929843</Frequency><Timestamp dt:dt="r8">18156006879</Timestamp><Current dt:dt="r8">0</Current><DateUtc dt:dt="string">2023-02-11T03:11:32Z</DateUtc></FrequencyChange></FrequencyChanges></Clock>\n	Wisconsin-1160-4	59.956	1.0.0.562	1	976696428	Professional	2.0.10.356	2.0.10.356	02-11-2023	2/11/2023 3:11:33 AM	11:11:33	2.0.10.252	3				1	1	2	BlockProc	List3	1																	1	1	1							ColorProc	List2									6	BUTTON1.png	BUTTON2.PNG	BUTTON3.png	BUTTON4.png	greentriangle3.png	7	1	6				z	0							0	TrialProc	ColorList							1	z	0	0	329043	0	z	523	color
Wisconsin	1160	4	<?xml version="1.0"?>\n<Clock xmlns:dt="urn:schemas-microsoft-com:datatypes"><Description dt:dt="string">E-Prime Primary Realtime Clock</Description><StartTime><Timestamp dt:dt="int">0</Timestamp><DateUtc dt:dt="string">2023-02-11T03:11:32Z</DateUtc></StartTime><FrequencyChanges><FrequencyChange><Frequency dt:dt="r8">2929843</Frequency><Timestamp dt:dt="r8">18156006879</Timestamp><Current dt:dt="r8">0</Current><DateUtc dt:dt="string">2023-02-11T03:11:32Z</DateUtc></FrequencyChange></FrequencyChanges></Clock>\n	Wisconsin-1160-4	59.956	1.0.0.562	1	976696428	Professional	2.0.10.356	2.0.10.356	02-11-2023	2/11/2023 3:11:33 AM	11:11:33	2.0.10.252	3				1	1	2	BlockProc	List3	1																	1	1	1							ColorProc	List2									7	BUTTON1.png	BUTTON2.PNG	BUTTON3.png	BUTTON4.png	yellowstar3.png	10	1	7				x	0							0	TrialProc	ColorList							1	x	0	1	332096	0	x	477	color
Wisconsin	1160	4	<?xml version="1.0"?>\n<Clock xmlns:dt="urn:schemas-microsoft-com:datatypes"><Description dt:dt="string">E-Prime Primary Realtime Clock</Description><StartTime><Timestamp dt:dt="int">0</Timestamp><DateUtc dt:dt="string">2023-02-11T03:11:32Z</DateUtc></StartTime><FrequencyChanges><FrequencyChange><Frequency dt:dt="r8">2929843</Frequency><Timestamp dt:dt="r8">18156006879</Timestamp><Current dt:dt="r8">0</Current><DateUtc dt:dt="string">2023-02-11T03:11:32Z</DateUtc></FrequencyChange></FrequencyChanges></Clock>\n	Wisconsin-1160-4	59.956	1.0.0.562	1	976696428	Professional	2.0.10.356	2.0.10.356	02-11-2023	2/11/2023 3:11:33 AM	11:11:33	2.0.10.252	3				1	1	2	BlockProc	List3	1																	1	1	1							ColorProc	List2									8	BUTTON1.png	BUTTON2.PNG	BUTTON3.png	BUTTON4.png	greentriangle1.png	6	1	8				z	0							0	TrialProc	ColorList							1	z	1	0	335114	0	z	451	color
Wisconsin	1160	4	<?xml version="1.0"?>\n<Clock xmlns:dt="urn:schemas-microsoft-com:datatypes"><Description dt:dt="string">E-Prime Primary Realtime Clock</Description><StartTime><Timestamp dt:dt="int">0</Timestamp><DateUtc dt:dt="string">2023-02-11T03:11:32Z</DateUtc></StartTime><FrequencyChanges><FrequencyChange><Frequency dt:dt="r8">2929843</Frequency><Timestamp dt:dt="r8">18156006879</Timestamp><Current dt:dt="r8">0</Current><DateUtc dt:dt="string">2023-02-11T03:11:32Z</DateUtc></FrequencyChange></FrequencyChanges></Clock>\n	Wisconsin-1160-4	59.956	1.0.0.562	1	976696428	Professional	2.0.10.356	2.0.10.356	02-11-2023	2/11/2023 3:11:33 AM	11:11:33	2.0.10.252	3				1	1	2	BlockProc	List3	1																	1	1	1							ColorProc	List2									9	BUTTON1.png	BUTTON2.PNG	BUTTON3.png	BUTTON4.png	greencircle3.png	4	1	9				z	0							0	TrialProc	ColorList							1	z	0	1	338100	0	z	441	color
Wisconsin	1160	4	<?xml version="1.0"?>\n<Clock xmlns:dt="urn:schemas-microsoft-com:datatypes"><Description dt:dt="string">E-Prime Primary Realtime Clock</Description><StartTime><Timestamp dt:dt="int">0</Timestamp><DateUtc dt:dt="string">2023-02-11T03:11:32Z</DateUtc></StartTime><FrequencyChanges><FrequencyChange><Frequency dt:dt="r8">2929843</Frequency><Timestamp dt:dt="r8">18156006879</Timestamp><Current dt:dt="r8">0</Current><DateUtc dt:dt="string">2023-02-11T03:11:32Z</DateUtc></FrequencyChange></FrequencyChanges></Clock>\n	Wisconsin-1160-4	59.956	1.0.0.562	1	976696428	Professional	2.0.10.356	2.0.10.356	02-11-2023	2/11/2023 3:11:33 AM	11:11:33	2.0.10.252	3				1	1	2	BlockProc	List3	1																	1	1	1							ColorProc	List2									10	BUTTON1.png	BUTTON2.PNG	BUTTON3.png	BUTTON4.png	yellowcircle1.png	9	1	10				x	0							0	TrialProc	ColorList							1	x	0	1	341069	0	x	528	color
Wisconsin	1160	4	<?xml version="1.0"?>\n<Clock xmlns:dt="urn:schemas-microsoft-com:datatypes"><Description dt:dt="string">E-Prime Primary Realtime Clock</Description><StartTime><Timestamp dt:dt="int">0</Timestamp><DateUtc dt:dt="string">2023-02-11T03:11:32Z</DateUtc></StartTime><FrequencyChanges><FrequencyChange><Frequency dt:dt="r8">2929843</Frequency><Timestamp dt:dt="r8">18156006879</Timestamp><Current dt:dt="r8">0</Current><DateUtc dt:dt="string">2023-02-11T03:11:32Z</DateUtc></FrequencyChange></FrequencyChanges></Clock>\n	Wisconsin-1160-4	59.956	1.0.0.562	1	976696428	Professional	2.0.10.356	2.0.10.356	02-11-2023	2/11/2023 3:11:33 AM	11:11:33	2.0.10.252	3				1	1	2	BlockProc	List3	2																	2	1	2							NumberProc	List2									1	Button1.png	Button2.png	Button3.png	Button4.png	Yellowcross1.png							v	1	9	1	1				0	TrialProc	NumberList							0	v	0	1	344138	0	c	2947	number
Wisconsin	1160	4	<?xml version="1.0"?>\n<Clock xmlns:dt="urn:schemas-microsoft-com:datatypes"><Description dt:dt="string">E-Prime Primary Realtime Clock</Description><StartTime><Timestamp dt:dt="int">0</Timestamp><DateUtc dt:dt="string">2023-02-11T03:11:32Z</DateUtc></StartTime><FrequencyChanges><FrequencyChange><Frequency dt:dt="r8">2929843</Frequency><Timestamp dt:dt="r8">18156006879</Timestamp><Current dt:dt="r8">0</Current><DateUtc dt:dt="string">2023-02-11T03:11:32Z</DateUtc></FrequencyChange></FrequencyChanges></Clock>\n	Wisconsin-1160-4	59.956	1.0.0.562	1	976696428	Professional	2.0.10.356	2.0.10.356	02-11-2023	2/11/2023 3:11:33 AM	11:11:33	2.0.10.252	3				1	1	2	BlockProc	List3	2																	2	1	2							NumberProc	List2									2	Button1.png	Button2.png	Button3.png	Button4.png	Bluecircle4.png							x	0	1	1	2				0	TrialProc	NumberList							1	x	0	1	349625	0	x	724	number
Wisconsin	1160	4	<?xml version="1.0"?>\n<Clock xmlns:dt="urn:schemas-microsoft-com:datatypes"><Description dt:dt="string">E-Prime Primary Realtime Clock</Description><StartTime><Timestamp dt:dt="int">0</Timestamp><DateUtc dt:dt="string">2023-02-11T03:11:32Z</DateUtc></StartTime><FrequencyChanges><FrequencyChange><Frequency dt:dt="r8">2929843</Frequency><Timestamp dt:dt="r8">18156006879</Timestamp><Current dt:dt="r8">0</Current><DateUtc dt:dt="string">2023-02-11T03:11:32Z</DateUtc></FrequencyChange></FrequencyChanges></Clock>\n	Wisconsin-1160-4	59.956	1.0.0.562	1	976696428	Professional	2.0.10.356	2.0.10.356	02-11-2023	2/11/2023 3:11:33 AM	11:11:33	2.0.10.252	3				1	1	2	BlockProc	List3	2																	2	1	2							NumberProc	List2									3	Button1.png	Button2.png	Button3.png	Button4.png	Greencross3.png							c	0	5	1	3				0	TrialProc	NumberList							1	c	0	1	352894	0	c	942	number
Wisconsin	1160	4	<?xml version="1.0"?>\n<Clock xmlns:dt="urn:schemas-microsoft-com:datatypes"><Description dt:dt="string">E-Prime Primary Realtime Clock</Description><StartTime><Timestamp dt:dt="int">0</Timestamp><DateUtc dt:dt="string">2023-02-11T03:11:32Z</DateUtc></StartTime><FrequencyChanges><FrequencyChange><Frequency dt:dt="r8">2929843</Frequency><Timestamp dt:dt="r8">18156006879</Timestamp><Current dt:dt="r8">0</Current><DateUtc dt:dt="string">2023-02-11T03:11:32Z</DateUtc></FrequencyChange></FrequencyChanges></Clock>\n	Wisconsin-1160-4	59.956	1.0.0.562	1	976696428	Professional	2.0.10.356	2.0.10.356	02-11-2023	2/11/2023 3:11:33 AM	11:11:33	2.0.10.252	3				1	1	2	BlockProc	List3	2																	2	1	2							NumberProc	List2									4	Button1.png	Button2.png	Button3.png	Button4.png	Redtriangle4.png							x	0	8	1	4				0	TrialProc	NumberList							1	x	0	1	356380	0	x	528	number
Wisconsin	1160	4	<?xml version="1.0"?>\n<Clock xmlns:dt="urn:schemas-microsoft-com:datatypes"><Description dt:dt="string">E-Prime Primary Realtime Clock</Description><StartTime><Timestamp dt:dt="int">0</Timestamp><DateUtc dt:dt="string">2023-02-11T03:11:32Z</DateUtc></StartTime><FrequencyChanges><FrequencyChange><Frequency dt:dt="r8">2929843</Frequency><Timestamp dt:dt="r8">18156006879</Timestamp><Current dt:dt="r8">0</Current><DateUtc dt:dt="string">2023-02-11T03:11:32Z</DateUtc></FrequencyChange></FrequencyChanges></Clock>\n	Wisconsin-1160-4	59.956	1.0.0.562	1	976696428	Professional	2.0.10.356	2.0.10.356	02-11-2023	2/11/2023 3:11:33 AM	11:11:33	2.0.10.252	3				1	1	2	BlockProc	List3	2																	2	1	2							NumberProc	List2									5	Button1.png	Button2.png	Button3.png	Button4.png	Redcircle4.png							x	0	6	1	5				0	TrialProc	NumberList							1	x	0	1	359449	0	x	1267	number
Wisconsin	1160	4	<?xml version="1.0"?>\n<Clock xmlns:dt="urn:schemas-microsoft-com:datatypes"><Description dt:dt="string">E-Prime Primary Realtime Clock</Description><StartTime><Timestamp dt:dt="int">0</Timestamp><DateUtc dt:dt="string">2023-02-11T03:11:32Z</DateUtc></StartTime><FrequencyChanges><FrequencyChange><Frequency dt:dt="r8">2929843</Frequency><Timestamp dt:dt="r8">18156006879</Timestamp><Current dt:dt="r8">0</Current><DateUtc dt:dt="string">2023-02-11T03:11:32Z</DateUtc></FrequencyChange></FrequencyChanges></Clock>\n	Wisconsin-1160-4	59.956	1.0.0.562	1	976696428	Professional	2.0.10.356	2.0.10.356	02-11-2023	2/11/2023 3:11:33 AM	11:11:33	2.0.10.252	3				1	1	2	BlockProc	List3	2																	2	1	2							NumberProc	List2									6	Button1.png	Button2.png	Button3.png	Button4.png	Yellowcross3.png							c	0	10	1	6				0	TrialProc	NumberList							1	c	0	1	363252	0	c	648	number
Wisconsin	1160	4	<?xml version="1.0"?>\n<Clock xmlns:dt="urn:schemas-microsoft-com:datatypes"><Description dt:dt="string">E-Prime Primary Realtime Clock</Description><StartTime><Timestamp dt:dt="int">0</Timestamp><DateUtc dt:dt="string">2023-02-11T03:11:32Z</DateUtc></StartTime><FrequencyChanges><FrequencyChange><Frequency dt:dt="r8">2929843</Frequency><Timestamp dt:dt="r8">18156006879</Timestamp><Current dt:dt="r8">0</Current><DateUtc dt:dt="string">2023-02-11T03:11:32Z</DateUtc></FrequencyChange></FrequencyChanges></Clock>\n	Wisconsin-1160-4	59.956	1.0.0.562	1	976696428	Professional	2.0.10.356	2.0.10.356	02-11-2023	2/11/2023 3:11:33 AM	11:11:33	2.0.10.252	3				1	1	2	BlockProc	List3	2																	2	1	2							NumberProc	List2									7	Button1.png	Button2.png	Button3.png	Button4.png	Greencircle4.png							x	0	4	1	7				0	TrialProc	NumberList							1	x	0	0	366437	0	x	535	number
Wisconsin	1160	4	<?xml version="1.0"?>\n<Clock xmlns:dt="urn:schemas-microsoft-com:datatypes"><Description dt:dt="string">E-Prime Primary Realtime Clock</Description><StartTime><Timestamp dt:dt="int">0</Timestamp><DateUtc dt:dt="string">2023-02-11T03:11:32Z</DateUtc></StartTime><FrequencyChanges><FrequencyChange><Frequency dt:dt="r8">2929843</Frequency><Timestamp dt:dt="r8">18156006879</Timestamp><Current dt:dt="r8">0</Current><DateUtc dt:dt="string">2023-02-11T03:11:32Z</DateUtc></FrequencyChange></FrequencyChanges></Clock>\n	Wisconsin-1160-4	59.956	1.0.0.562	1	976696428	Professional	2.0.10.356	2.0.10.356	02-11-2023	2/11/2023 3:11:33 AM	11:11:33	2.0.10.252	3				1	1	2	BlockProc	List3	2																	2	1	2							NumberProc	List2									8	Button1.png	Button2.png	Button3.png	Button4.png	Redstar2.png							z	0	7	1	8				0	TrialProc	NumberList							1	z	0	0	369506	0	z	793	number
Wisconsin	1160	4	<?xml version="1.0"?>\n<Clock xmlns:dt="urn:schemas-microsoft-com:datatypes"><Description dt:dt="string">E-Prime Primary Realtime Clock</Description><StartTime><Timestamp dt:dt="int">0</Timestamp><DateUtc dt:dt="string">2023-02-11T03:11:32Z</DateUtc></StartTime><FrequencyChanges><FrequencyChange><Frequency dt:dt="r8">2929843</Frequency><Timestamp dt:dt="r8">18156006879</Timestamp><Current dt:dt="r8">0</Current><DateUtc dt:dt="string">2023-02-11T03:11:32Z</DateUtc></FrequencyChange></FrequencyChanges></Clock>\n	Wisconsin-1160-4	59.956	1.0.0.562	1	976696428	Professional	2.0.10.356	2.0.10.356	02-11-2023	2/11/2023 3:11:33 AM	11:11:33	2.0.10.252	3				1	1	2	BlockProc	List3	2																	2	1	2							NumberProc	List2									9	Button1.png	Button2.png	Button3.png	Button4.png	Bluestar2.png							z	1	2	1	9				0	TrialProc	NumberList							0	z	0	1	372842	0	x	609	number
Wisconsin	1160	4	<?xml version="1.0"?>\n<Clock xmlns:dt="urn:schemas-microsoft-com:datatypes"><Description dt:dt="string">E-Prime Primary Realtime Clock</Description><StartTime><Timestamp dt:dt="int">0</Timestamp><DateUtc dt:dt="string">2023-02-11T03:11:32Z</DateUtc></StartTime><FrequencyChanges><FrequencyChange><Frequency dt:dt="r8">2929843</Frequency><Timestamp dt:dt="r8">18156006879</Timestamp><Current dt:dt="r8">0</Current><DateUtc dt:dt="string">2023-02-11T03:11:32Z</DateUtc></FrequencyChange></FrequencyChanges></Clock>\n	Wisconsin-1160-4	59.956	1.0.0.562	1	976696428	Professional	2.0.10.356	2.0.10.356	02-11-2023	2/11/2023 3:11:33 AM	11:11:33	2.0.10.252	3				1	1	2	BlockProc	List3	2																	2	1	2							NumberProc	List2									10	Button1.png	Button2.png	Button3.png	Button4.png	Bluetriangle1.png							v	0	3	1	10				0	TrialProc	NumberList							1	v	0	1	375978	0	v	801	number
Wisconsin	1160	4	<?xml version="1.0"?>\n<Clock xmlns:dt="urn:schemas-microsoft-com:datatypes"><Description dt:dt="string">E-Prime Primary Realtime Clock</Description><StartTime><Timestamp dt:dt="int">0</Timestamp><DateUtc dt:dt="string">2023-02-11T03:11:32Z</DateUtc></StartTime><FrequencyChanges><FrequencyChange><Frequency dt:dt="r8">2929843</Frequency><Timestamp dt:dt="r8">18156006879</Timestamp><Current dt:dt="r8">0</Current><DateUtc dt:dt="string">2023-02-11T03:11:32Z</DateUtc></FrequencyChange></FrequencyChanges></Clock>\n	Wisconsin-1160-4	59.956	1.0.0.562	1	976696428	Professional	2.0.10.356	2.0.10.356	02-11-2023	2/11/2023 3:11:33 AM	11:11:33	2.0.10.252	3				1	1	2	BlockProc	List3	3																	3	1	3							ShapeProc	List2									1	Button1.png	Button2.png	Button3.png	Button4.png	yellowcircle3.png							z	0							0	TrialProc	ShapeList	8	1	1				1	z	0	0	379313	0	z	2682	Shape
Wisconsin	1160	4	<?xml version="1.0"?>\n<Clock xmlns:dt="urn:schemas-microsoft-com:datatypes"><Description dt:dt="string">E-Prime Primary Realtime Clock</Description><StartTime><Timestamp dt:dt="int">0</Timestamp><DateUtc dt:dt="string">2023-02-11T03:11:32Z</DateUtc></StartTime><FrequencyChanges><FrequencyChange><Frequency dt:dt="r8">2929843</Frequency><Timestamp dt:dt="r8">18156006879</Timestamp><Current dt:dt="r8">0</Current><DateUtc dt:dt="string">2023-02-11T03:11:32Z</DateUtc></FrequencyChange></FrequencyChanges></Clock>\n	Wisconsin-1160-4	59.956	1.0.0.562	1	976696428	Professional	2.0.10.356	2.0.10.356	02-11-2023	2/11/2023 3:11:33 AM	11:11:33	2.0.10.252	3				1	1	2	BlockProc	List3	3																	3	1	3							ShapeProc	List2									2	Button1.png	Button2.png	Button3.png	Button4.png	Bluecross4.png							c	0							0	TrialProc	ShapeList	2	1	2				1	c	0	1	384534	0	c	1381	Shape
Wisconsin	1160	4	<?xml version="1.0"?>\n<Clock xmlns:dt="urn:schemas-microsoft-com:datatypes"><Description dt:dt="string">E-Prime Primary Realtime Clock</Description><StartTime><Timestamp dt:dt="int">0</Timestamp><DateUtc dt:dt="string">2023-02-11T03:11:32Z</DateUtc></StartTime><FrequencyChanges><FrequencyChange><Frequency dt:dt="r8">2929843</Frequency><Timestamp dt:dt="r8">18156006879</Timestamp><Current dt:dt="r8">0</Current><DateUtc dt:dt="string">2023-02-11T03:11:32Z</DateUtc></FrequencyChange></FrequencyChanges></Clock>\n	Wisconsin-1160-4	59.956	1.0.0.562	1	976696428	Professional	2.0.10.356	2.0.10.356	02-11-2023	2/11/2023 3:11:33 AM	11:11:33	2.0.10.252	3				1	1	2	BlockProc	List3	3																	3	1	3							ShapeProc	List2									3	Button1.png	Button2.png	Button3.png	Button4.png	Bluecircle2.png							z	0							0	TrialProc	ShapeList	1	1	3				1	z	1	0	388453	0	z	661	Shape
Wisconsin	1160	4	<?xml version="1.0"?>\n<Clock xmlns:dt="urn:schemas-microsoft-com:datatypes"><Description dt:dt="string">E-Prime Primary Realtime Clock</Description><StartTime><Timestamp dt:dt="int">0</Timestamp><DateUtc dt:dt="string">2023-02-11T03:11:32Z</DateUtc></StartTime><FrequencyChanges><FrequencyChange><Frequency dt:dt="r8">2929843</Frequency><Timestamp dt:dt="r8">18156006879</Timestamp><Current dt:dt="r8">0</Current><DateUtc dt:dt="string">2023-02-11T03:11:32Z</DateUtc></FrequencyChange></FrequencyChanges></Clock>\n	Wisconsin-1160-4	59.956	1.0.0.562	1	976696428	Professional	2.0.10.356	2.0.10.356	02-11-2023	2/11/2023 3:11:33 AM	11:11:33	2.0.10.252	3				1	1	2	BlockProc	List3	3																	3	1	3							ShapeProc	List2									4	Button1.png	Button2.png	Button3.png	Button4.png	Yellowstar1.png							v	0							0	TrialProc	ShapeList	9	1	4				1	v	0	1	391656	0	v	1218	Shape
Wisconsin	1160	4	<?xml version="1.0"?>\n<Clock xmlns:dt="urn:schemas-microsoft-com:datatypes"><Description dt:dt="string">E-Prime Primary Realtime Clock</Description><StartTime><Timestamp dt:dt="int">0</Timestamp><DateUtc dt:dt="string">2023-02-11T03:11:32Z</DateUtc></StartTime><FrequencyChanges><FrequencyChange><Frequency dt:dt="r8">2929843</Frequency><Timestamp dt:dt="r8">18156006879</Timestamp><Current dt:dt="r8">0</Current><DateUtc dt:dt="string">2023-02-11T03:11:32Z</DateUtc></FrequencyChange></FrequencyChanges></Clock>\n	Wisconsin-1160-4	59.956	1.0.0.562	1	976696428	Professional	2.0.10.356	2.0.10.356	02-11-2023	2/11/2023 3:11:33 AM	11:11:33	2.0.10.252	3				1	1	2	BlockProc	List3	3																	3	1	3							ShapeProc	List2									5	Button1.png	Button2.png	Button3.png	Button4.png	Redcross1.png							c	0							0	TrialProc	ShapeList	5	1	5				1	c	1	0	395408	0	c	730	Shape
Wisconsin	1160	4	<?xml version="1.0"?>\n<Clock xmlns:dt="urn:schemas-microsoft-com:datatypes"><Description dt:dt="string">E-Prime Primary Realtime Clock</Description><StartTime><Timestamp dt:dt="int">0</Timestamp><DateUtc dt:dt="string">2023-02-11T03:11:32Z</DateUtc></StartTime><FrequencyChanges><FrequencyChange><Frequency dt:dt="r8">2929843</Frequency><Timestamp dt:dt="r8">18156006879</Timestamp><Current dt:dt="r8">0</Current><DateUtc dt:dt="string">2023-02-11T03:11:32Z</DateUtc></FrequencyChange></FrequencyChanges></Clock>\n	Wisconsin-1160-4	59.956	1.0.0.562	1	976696428	Professional	2.0.10.356	2.0.10.356	02-11-2023	2/11/2023 3:11:33 AM	11:11:33	2.0.10.252	3				1	1	2	BlockProc	List3	3																	3	1	3							ShapeProc	List2									6	Button1.png	Button2.png	Button3.png	Button4.png	Greentriangle4.png							x	0							0	TrialProc	ShapeList	4	1	6				1	x	0	1	398678	0	x	740	Shape
Wisconsin	1160	4	<?xml version="1.0"?>\n<Clock xmlns:dt="urn:schemas-microsoft-com:datatypes"><Description dt:dt="string">E-Prime Primary Realtime Clock</Description><StartTime><Timestamp dt:dt="int">0</Timestamp><DateUtc dt:dt="string">2023-02-11T03:11:32Z</DateUtc></StartTime><FrequencyChanges><FrequencyChange><Frequency dt:dt="r8">2929843</Frequency><Timestamp dt:dt="r8">18156006879</Timestamp><Current dt:dt="r8">0</Current><DateUtc dt:dt="string">2023-02-11T03:11:32Z</DateUtc></FrequencyChange></FrequencyChanges></Clock>\n	Wisconsin-1160-4	59.956	1.0.0.562	1	976696428	Professional	2.0.10.356	2.0.10.356	02-11-2023	2/11/2023 3:11:33 AM	11:11:33	2.0.10.252	3				1	1	2	BlockProc	List3	3																	3	1	3							ShapeProc	List2									7	Button1.png	Button2.png	Button3.png	Button4.png	Redtriangle1.png							x	0							0	TrialProc	ShapeList	7	1	7				1	x	0	0	401963	0	x	1695	Shape
Wisconsin	1160	4	<?xml version="1.0"?>\n<Clock xmlns:dt="urn:schemas-microsoft-com:datatypes"><Description dt:dt="string">E-Prime Primary Realtime Clock</Description><StartTime><Timestamp dt:dt="int">0</Timestamp><DateUtc dt:dt="string">2023-02-11T03:11:32Z</DateUtc></StartTime><FrequencyChanges><FrequencyChange><Frequency dt:dt="r8">2929843</Frequency><Timestamp dt:dt="r8">18156006879</Timestamp><Current dt:dt="r8">0</Current><DateUtc dt:dt="string">2023-02-11T03:11:32Z</DateUtc></FrequencyChange></FrequencyChanges></Clock>\n	Wisconsin-1160-4	59.956	1.0.0.562	1	976696428	Professional	2.0.10.356	2.0.10.356	02-11-2023	2/11/2023 3:11:33 AM	11:11:33	2.0.10.252	3				1	1	2	BlockProc	List3	3																	3	1	3							ShapeProc	List2									8	Button1.png	Button2.png	Button3.png	Button4.png	Greencross1.png							c	0							0	TrialProc	ShapeList	3	1	8				1	c	0	1	406200	0	c	786	Shape
Wisconsin	1160	4	<?xml version="1.0"?>\n<Clock xmlns:dt="urn:schemas-microsoft-com:datatypes"><Description dt:dt="string">E-Prime Primary Realtime Clock</Description><StartTime><Timestamp dt:dt="int">0</Timestamp><DateUtc dt:dt="string">2023-02-11T03:11:32Z</DateUtc></StartTime><FrequencyChanges><FrequencyChange><Frequency dt:dt="r8">2929843</Frequency><Timestamp dt:dt="r8">18156006879</Timestamp><Current dt:dt="r8">0</Current><DateUtc dt:dt="string">2023-02-11T03:11:32Z</DateUtc></FrequencyChange></FrequencyChanges></Clock>\n	Wisconsin-1160-4	59.956	1.0.0.562	1	976696428	Professional	2.0.10.356	2.0.10.356	02-11-2023	2/11/2023 3:11:33 AM	11:11:33	2.0.10.252	3				1	1	2	BlockProc	List3	3																	3	1	3							ShapeProc	List2									9	Button1.png	Button2.png	Button3.png	Button4.png	Redcross4.png							c	0							0	TrialProc	ShapeList	6	1	9				1	c	0	1	409519	0	c	1194	Shape
Wisconsin	1160	4	<?xml version="1.0"?>\n<Clock xmlns:dt="urn:schemas-microsoft-com:datatypes"><Description dt:dt="string">E-Prime Primary Realtime Clock</Description><StartTime><Timestamp dt:dt="int">0</Timestamp><DateUtc dt:dt="string">2023-02-11T03:11:32Z</DateUtc></StartTime><FrequencyChanges><FrequencyChange><Frequency dt:dt="r8">2929843</Frequency><Timestamp dt:dt="r8">18156006879</Timestamp><Current dt:dt="r8">0</Current><DateUtc dt:dt="string">2023-02-11T03:11:32Z</DateUtc></FrequencyChange></FrequencyChanges></Clock>\n	Wisconsin-1160-4	59.956	1.0.0.562	1	976696428	Professional	2.0.10.356	2.0.10.356	02-11-2023	2/11/2023 3:11:33 AM	11:11:33	2.0.10.252	3				1	1	2	BlockProc	List3	3																	3	1	3							ShapeProc	List2									10	Button1.png	Button2.png	Button3.png	Button4.png	Yellowstar4.png							v	0							0	TrialProc	ShapeList	10	1	10				1	v	0	1	413255	0	v	850	Shape
