ExperimentName	Subject	Session	Clock.Information	DataFile.Basename	Display.RefreshRate	ExperimentVersion	Group	RandomSeed	RuntimeCapabilities	RuntimeVersion	RuntimeVersionExpected	SessionDate	SessionStartDateTimeUtc	SessionTime	Slide1.DEVICE	Slide2.DEVICE	Slide3.DEVICE	StudioVersion	Welcome.DEVICE	Block	GetReady.DEVICE	List1	List1.Cycle	List1.Sample	List2	List2.Cycle	List2.Sample	PracticeReady.DEVICE	Procedure[Block]	Running[Block]	Trial	CardIMG1[Trial]	CardIMG2[Trial]	CardIMG3[Trial]	CardIMG4[Trial]	CardStim[Trial]	Category	CorrectAnswer[Trial]	List3	List3.Cycle	List3.Sample	List4	List4.Cycle	List4.Sample	PracticeList	PracticeList.Cycle	PracticeList.Sample	Procedure[Trial]	Running[Trial]	Slide4.ACC	Slide4.CRESP	Slide4.DEVICE	Slide4.DurationError	Slide4.OnsetDelay	Slide4.OnsetTime	Slide4.OnsetToOnsetTime	Slide4.RESP	Slide4.RT	Slide4.RTTime	SubTrial	CardIMG1[SubTrial]	CardIMG2[SubTrial]	CardIMG3[SubTrial]	CardIMG4[SubTrial]	CardStim[SubTrial]	ColorList	ColorList.Cycle	ColorList.Sample	ColorList2	ColorList2.Cycle	ColorList2.Sample	CorrectAnswer[SubTrial]	NonPerseverativeError	NumberList	NumberList.Cycle	NumberList.Sample	NumberList2	NumberList2.Cycle	NumberList2.Sample	PerseverativeError	Procedure[SubTrial]	Running[SubTrial]	ShapeList	ShapeList.Cycle	ShapeList.Sample	ShapeList2	ShapeList2.Cycle	ShapeList2.Sample	Slide5.ACC	Slide5.CRESP	Slide5.DEVICE	Slide5.DurationError	Slide5.OnsetDelay	Slide5.OnsetTime	Slide5.OnsetToOnsetTime	Slide5.RESP	Slide5.RT	Slide5.RTTime	TrialType
Wisconsin	1167	3	<?xml version="1.0"?>\n<Clock xmlns:dt="urn:schemas-microsoft-com:datatypes"><Description dt:dt="string">E-Prime Primary Realtime Clock</Description><StartTime><Timestamp dt:dt="int">0</Timestamp><DateUtc dt:dt="string">2022-11-26T08:27:06Z</DateUtc></StartTime><FrequencyChanges><FrequencyChange><Frequency dt:dt="r8">10000000</Frequency><Timestamp dt:dt="r8">1682940886994</Timestamp><Current dt:dt="r8">0</Current><DateUtc dt:dt="string">2022-11-26T08:27:06Z</DateUtc></FrequencyChange></FrequencyChanges></Clock>\n	Wisconsin-1167-3	60.008	1.0.0.242	1	-683244788	Full	3.0.3.80	3.0.3.80	11-26-2022	11/26/2022 8:27:06 AM	16:27:06	Keyboard	Keyboard	Keyboard	3.0.3.82	Keyboard	1	Keyboard	1	1	1				Keyboard	Practiceploc	List1	1	Button1.png	Button2.png	Button3.png	Button4.png	Greencircle3.png	顏色	{button1}							1	1	1	PracticeTrialProc	PracticeList	1	{button1}	Button	4	66	45283	0	{Button1}	1599	46882																																								
Wisconsin	1167	3	<?xml version="1.0"?>\n<Clock xmlns:dt="urn:schemas-microsoft-com:datatypes"><Description dt:dt="string">E-Prime Primary Realtime Clock</Description><StartTime><Timestamp dt:dt="int">0</Timestamp><DateUtc dt:dt="string">2022-11-26T08:27:06Z</DateUtc></StartTime><FrequencyChanges><FrequencyChange><Frequency dt:dt="r8">10000000</Frequency><Timestamp dt:dt="r8">1682940886994</Timestamp><Current dt:dt="r8">0</Current><DateUtc dt:dt="string">2022-11-26T08:27:06Z</DateUtc></FrequencyChange></FrequencyChanges></Clock>\n	Wisconsin-1167-3	60.008	1.0.0.242	1	-683244788	Full	3.0.3.80	3.0.3.80	11-26-2022	11/26/2022 8:27:06 AM	16:27:06	Keyboard	Keyboard	Keyboard	3.0.3.82	Keyboard	1	Keyboard	1	1	1				Keyboard	Practiceploc	List1	2	Button1.png	Button2.png	Button3.png	Button4.png	Redstar2.png	顏色	{button3}							2	1	2	PracticeTrialProc	PracticeList	1	{button3}	Button	4	66	49565	0	{Button3}	1741	51306																																								
Wisconsin	1167	3	<?xml version="1.0"?>\n<Clock xmlns:dt="urn:schemas-microsoft-com:datatypes"><Description dt:dt="string">E-Prime Primary Realtime Clock</Description><StartTime><Timestamp dt:dt="int">0</Timestamp><DateUtc dt:dt="string">2022-11-26T08:27:06Z</DateUtc></StartTime><FrequencyChanges><FrequencyChange><Frequency dt:dt="r8">10000000</Frequency><Timestamp dt:dt="r8">1682940886994</Timestamp><Current dt:dt="r8">0</Current><DateUtc dt:dt="string">2022-11-26T08:27:06Z</DateUtc></FrequencyChange></FrequencyChanges></Clock>\n	Wisconsin-1167-3	60.008	1.0.0.242	1	-683244788	Full	3.0.3.80	3.0.3.80	11-26-2022	11/26/2022 8:27:06 AM	16:27:06	Keyboard	Keyboard	Keyboard	3.0.3.82	Keyboard	1	Keyboard	1	1	1				Keyboard	Practiceploc	List1	3	Button1.png	Button2.png	Button3.png	Button4.png	Bluetriangle1.png	形狀	{button2}							3	1	3	PracticeTrialProc	PracticeList	1	{button2}	Button	3	67	53948	0	{Button2}	3022	56970																																								
Wisconsin	1167	3	<?xml version="1.0"?>\n<Clock xmlns:dt="urn:schemas-microsoft-com:datatypes"><Description dt:dt="string">E-Prime Primary Realtime Clock</Description><StartTime><Timestamp dt:dt="int">0</Timestamp><DateUtc dt:dt="string">2022-11-26T08:27:06Z</DateUtc></StartTime><FrequencyChanges><FrequencyChange><Frequency dt:dt="r8">10000000</Frequency><Timestamp dt:dt="r8">1682940886994</Timestamp><Current dt:dt="r8">0</Current><DateUtc dt:dt="string">2022-11-26T08:27:06Z</DateUtc></FrequencyChange></FrequencyChanges></Clock>\n	Wisconsin-1167-3	60.008	1.0.0.242	1	-683244788	Full	3.0.3.80	3.0.3.80	11-26-2022	11/26/2022 8:27:06 AM	16:27:06	Keyboard	Keyboard	Keyboard	3.0.3.82	Keyboard	1	Keyboard	1	1	1				Keyboard	Practiceploc	List1	4	Button1.png	Button2.png	Button3.png	Button4.png	greenstar2.png	形狀	{Button4}							4	1	4	PracticeTrialProc	PracticeList	1	{Button4}	Button	1	50	59580	0	{Button4}	2535	62115																																								
Wisconsin	1167	3	<?xml version="1.0"?>\n<Clock xmlns:dt="urn:schemas-microsoft-com:datatypes"><Description dt:dt="string">E-Prime Primary Realtime Clock</Description><StartTime><Timestamp dt:dt="int">0</Timestamp><DateUtc dt:dt="string">2022-11-26T08:27:06Z</DateUtc></StartTime><FrequencyChanges><FrequencyChange><Frequency dt:dt="r8">10000000</Frequency><Timestamp dt:dt="r8">1682940886994</Timestamp><Current dt:dt="r8">0</Current><DateUtc dt:dt="string">2022-11-26T08:27:06Z</DateUtc></FrequencyChange></FrequencyChanges></Clock>\n	Wisconsin-1167-3	60.008	1.0.0.242	1	-683244788	Full	3.0.3.80	3.0.3.80	11-26-2022	11/26/2022 8:27:06 AM	16:27:06	Keyboard	Keyboard	Keyboard	3.0.3.82	Keyboard	1	Keyboard	1	1	1				Keyboard	Practiceploc	List1	5	Button1.png	Button2.png	Button3.png	Button4.png	BlueCross4.png	圖案數目	{Button2}							5	1	5	PracticeTrialProc	PracticeList	1	{Button2}	Button	2	50	64712	0	{Button2}	2138	66850																																								
Wisconsin	1167	3	<?xml version="1.0"?>\n<Clock xmlns:dt="urn:schemas-microsoft-com:datatypes"><Description dt:dt="string">E-Prime Primary Realtime Clock</Description><StartTime><Timestamp dt:dt="int">0</Timestamp><DateUtc dt:dt="string">2022-11-26T08:27:06Z</DateUtc></StartTime><FrequencyChanges><FrequencyChange><Frequency dt:dt="r8">10000000</Frequency><Timestamp dt:dt="r8">1682940886994</Timestamp><Current dt:dt="r8">0</Current><DateUtc dt:dt="string">2022-11-26T08:27:06Z</DateUtc></FrequencyChange></FrequencyChanges></Clock>\n	Wisconsin-1167-3	60.008	1.0.0.242	1	-683244788	Full	3.0.3.80	3.0.3.80	11-26-2022	11/26/2022 8:27:06 AM	16:27:06	Keyboard	Keyboard	Keyboard	3.0.3.82	Keyboard	1	Keyboard	1	1	1				Keyboard	Practiceploc	List1	6	Button1.png	Button2.png	Button3.png	Button4.png	yellowcircle2.png	圖案數目	{Button1}							6	1	6	PracticeTrialProc	PracticeList	1	{Button1}	Button	2	50	69444	0	{Button1}	1343	70787																																								
Wisconsin	1167	3	<?xml version="1.0"?>\n<Clock xmlns:dt="urn:schemas-microsoft-com:datatypes"><Description dt:dt="string">E-Prime Primary Realtime Clock</Description><StartTime><Timestamp dt:dt="int">0</Timestamp><DateUtc dt:dt="string">2022-11-26T08:27:06Z</DateUtc></StartTime><FrequencyChanges><FrequencyChange><Frequency dt:dt="r8">10000000</Frequency><Timestamp dt:dt="r8">1682940886994</Timestamp><Current dt:dt="r8">0</Current><DateUtc dt:dt="string">2022-11-26T08:27:06Z</DateUtc></FrequencyChange></FrequencyChanges></Clock>\n	Wisconsin-1167-3	60.008	1.0.0.242	1	-683244788	Full	3.0.3.80	3.0.3.80	11-26-2022	11/26/2022 8:27:06 AM	16:27:06	Keyboard	Keyboard	Keyboard	3.0.3.82	Keyboard	2					2	1	1		BlockProc2	List2	1											1	1	1				ColorProc2	List4											1	BUTTON1.png	BUTTON2.PNG	BUTTON3.png	BUTTON4.png	Greencircle1.png				3	1	1	{Button1}	0							0	TrialProc	ColorList2							1	{Button1}	Button	3	49	77075	0	{Button1}	2999	80074	color
Wisconsin	1167	3	<?xml version="1.0"?>\n<Clock xmlns:dt="urn:schemas-microsoft-com:datatypes"><Description dt:dt="string">E-Prime Primary Realtime Clock</Description><StartTime><Timestamp dt:dt="int">0</Timestamp><DateUtc dt:dt="string">2022-11-26T08:27:06Z</DateUtc></StartTime><FrequencyChanges><FrequencyChange><Frequency dt:dt="r8">10000000</Frequency><Timestamp dt:dt="r8">1682940886994</Timestamp><Current dt:dt="r8">0</Current><DateUtc dt:dt="string">2022-11-26T08:27:06Z</DateUtc></FrequencyChange></FrequencyChanges></Clock>\n	Wisconsin-1167-3	60.008	1.0.0.242	1	-683244788	Full	3.0.3.80	3.0.3.80	11-26-2022	11/26/2022 8:27:06 AM	16:27:06	Keyboard	Keyboard	Keyboard	3.0.3.82	Keyboard	2					2	1	1		BlockProc2	List2	1											1	1	1				ColorProc2	List4											2	BUTTON1.png	BUTTON2.PNG	BUTTON3.png	BUTTON4.png	greencross4.png				4	1	2	{Button1}	0							0	TrialProc	ColorList2							0	{Button1}	Button	2	33	82657	0	{Button2}	3217	85874	color
Wisconsin	1167	3	<?xml version="1.0"?>\n<Clock xmlns:dt="urn:schemas-microsoft-com:datatypes"><Description dt:dt="string">E-Prime Primary Realtime Clock</Description><StartTime><Timestamp dt:dt="int">0</Timestamp><DateUtc dt:dt="string">2022-11-26T08:27:06Z</DateUtc></StartTime><FrequencyChanges><FrequencyChange><Frequency dt:dt="r8">10000000</Frequency><Timestamp dt:dt="r8">1682940886994</Timestamp><Current dt:dt="r8">0</Current><DateUtc dt:dt="string">2022-11-26T08:27:06Z</DateUtc></FrequencyChange></FrequencyChanges></Clock>\n	Wisconsin-1167-3	60.008	1.0.0.242	1	-683244788	Full	3.0.3.80	3.0.3.80	11-26-2022	11/26/2022 8:27:06 AM	16:27:06	Keyboard	Keyboard	Keyboard	3.0.3.82	Keyboard	2					2	1	1		BlockProc2	List2	1											1	1	1				ColorProc2	List4											3	BUTTON1.png	BUTTON2.PNG	BUTTON3.png	BUTTON4.png	yellowtriangle3.png				10	1	3	{Button2}	0							0	TrialProc	ColorList2							0	{Button2}	Button	2	33	88456	0	{Button3}	2771	91227	color
Wisconsin	1167	3	<?xml version="1.0"?>\n<Clock xmlns:dt="urn:schemas-microsoft-com:datatypes"><Description dt:dt="string">E-Prime Primary Realtime Clock</Description><StartTime><Timestamp dt:dt="int">0</Timestamp><DateUtc dt:dt="string">2022-11-26T08:27:06Z</DateUtc></StartTime><FrequencyChanges><FrequencyChange><Frequency dt:dt="r8">10000000</Frequency><Timestamp dt:dt="r8">1682940886994</Timestamp><Current dt:dt="r8">0</Current><DateUtc dt:dt="string">2022-11-26T08:27:06Z</DateUtc></FrequencyChange></FrequencyChanges></Clock>\n	Wisconsin-1167-3	60.008	1.0.0.242	1	-683244788	Full	3.0.3.80	3.0.3.80	11-26-2022	11/26/2022 8:27:06 AM	16:27:06	Keyboard	Keyboard	Keyboard	3.0.3.82	Keyboard	2					2	1	1		BlockProc2	List2	1											1	1	1				ColorProc2	List4											4	BUTTON1.png	BUTTON2.PNG	BUTTON3.png	BUTTON4.png	greentriangle2.png				6	1	4	{Button1}	0							0	TrialProc	ColorList2							1	{Button1}	Button	1	33	93805	0	{Button1}	2542	96347	color
Wisconsin	1167	3	<?xml version="1.0"?>\n<Clock xmlns:dt="urn:schemas-microsoft-com:datatypes"><Description dt:dt="string">E-Prime Primary Realtime Clock</Description><StartTime><Timestamp dt:dt="int">0</Timestamp><DateUtc dt:dt="string">2022-11-26T08:27:06Z</DateUtc></StartTime><FrequencyChanges><FrequencyChange><Frequency dt:dt="r8">10000000</Frequency><Timestamp dt:dt="r8">1682940886994</Timestamp><Current dt:dt="r8">0</Current><DateUtc dt:dt="string">2022-11-26T08:27:06Z</DateUtc></FrequencyChange></FrequencyChanges></Clock>\n	Wisconsin-1167-3	60.008	1.0.0.242	1	-683244788	Full	3.0.3.80	3.0.3.80	11-26-2022	11/26/2022 8:27:06 AM	16:27:06	Keyboard	Keyboard	Keyboard	3.0.3.82	Keyboard	2					2	1	1		BlockProc2	List2	1											1	1	1				ColorProc2	List4											5	BUTTON1.png	BUTTON2.PNG	BUTTON3.png	BUTTON4.png	greenstar4.png				5	1	5	{Button1}	0							0	TrialProc	ColorList2							1	{Button1}	Button	2	50	98937	0	{Button1}	3202	102139	color
Wisconsin	1167	3	<?xml version="1.0"?>\n<Clock xmlns:dt="urn:schemas-microsoft-com:datatypes"><Description dt:dt="string">E-Prime Primary Realtime Clock</Description><StartTime><Timestamp dt:dt="int">0</Timestamp><DateUtc dt:dt="string">2022-11-26T08:27:06Z</DateUtc></StartTime><FrequencyChanges><FrequencyChange><Frequency dt:dt="r8">10000000</Frequency><Timestamp dt:dt="r8">1682940886994</Timestamp><Current dt:dt="r8">0</Current><DateUtc dt:dt="string">2022-11-26T08:27:06Z</DateUtc></FrequencyChange></FrequencyChanges></Clock>\n	Wisconsin-1167-3	60.008	1.0.0.242	1	-683244788	Full	3.0.3.80	3.0.3.80	11-26-2022	11/26/2022 8:27:06 AM	16:27:06	Keyboard	Keyboard	Keyboard	3.0.3.82	Keyboard	2					2	1	1		BlockProc2	List2	1											1	1	1				ColorProc2	List4											6	BUTTON1.png	BUTTON2.PNG	BUTTON3.png	BUTTON4.png	bluestar3.png				2	1	6	{Button4}	0							0	TrialProc	ColorList2							1	{Button4}	Button	2	49	104735	0	{Button4}	3380	108115	color
Wisconsin	1167	3	<?xml version="1.0"?>\n<Clock xmlns:dt="urn:schemas-microsoft-com:datatypes"><Description dt:dt="string">E-Prime Primary Realtime Clock</Description><StartTime><Timestamp dt:dt="int">0</Timestamp><DateUtc dt:dt="string">2022-11-26T08:27:06Z</DateUtc></StartTime><FrequencyChanges><FrequencyChange><Frequency dt:dt="r8">10000000</Frequency><Timestamp dt:dt="r8">1682940886994</Timestamp><Current dt:dt="r8">0</Current><DateUtc dt:dt="string">2022-11-26T08:27:06Z</DateUtc></FrequencyChange></FrequencyChanges></Clock>\n	Wisconsin-1167-3	60.008	1.0.0.242	1	-683244788	Full	3.0.3.80	3.0.3.80	11-26-2022	11/26/2022 8:27:06 AM	16:27:06	Keyboard	Keyboard	Keyboard	3.0.3.82	Keyboard	2					2	1	1		BlockProc2	List2	1											1	1	1				ColorProc2	List4											7	BUTTON1.png	BUTTON2.PNG	BUTTON3.png	BUTTON4.png	bluecross1.png				1	1	7	{Button4}	0							0	TrialProc	ColorList2							1	{Button4}	Button	1	33	110701	0	{Button4}	2213	112914	color
Wisconsin	1167	3	<?xml version="1.0"?>\n<Clock xmlns:dt="urn:schemas-microsoft-com:datatypes"><Description dt:dt="string">E-Prime Primary Realtime Clock</Description><StartTime><Timestamp dt:dt="int">0</Timestamp><DateUtc dt:dt="string">2022-11-26T08:27:06Z</DateUtc></StartTime><FrequencyChanges><FrequencyChange><Frequency dt:dt="r8">10000000</Frequency><Timestamp dt:dt="r8">1682940886994</Timestamp><Current dt:dt="r8">0</Current><DateUtc dt:dt="string">2022-11-26T08:27:06Z</DateUtc></FrequencyChange></FrequencyChanges></Clock>\n	Wisconsin-1167-3	60.008	1.0.0.242	1	-683244788	Full	3.0.3.80	3.0.3.80	11-26-2022	11/26/2022 8:27:06 AM	16:27:06	Keyboard	Keyboard	Keyboard	3.0.3.82	Keyboard	2					2	1	1		BlockProc2	List2	1											1	1	1				ColorProc2	List4											8	BUTTON1.png	BUTTON2.PNG	BUTTON3.png	BUTTON4.png	yellowcircle2.png				9	1	8	{Button2}	0							0	TrialProc	ColorList2							0	{Button2}	Button	2	33	115499	0	{Button1}	2423	117922	color
Wisconsin	1167	3	<?xml version="1.0"?>\n<Clock xmlns:dt="urn:schemas-microsoft-com:datatypes"><Description dt:dt="string">E-Prime Primary Realtime Clock</Description><StartTime><Timestamp dt:dt="int">0</Timestamp><DateUtc dt:dt="string">2022-11-26T08:27:06Z</DateUtc></StartTime><FrequencyChanges><FrequencyChange><Frequency dt:dt="r8">10000000</Frequency><Timestamp dt:dt="r8">1682940886994</Timestamp><Current dt:dt="r8">0</Current><DateUtc dt:dt="string">2022-11-26T08:27:06Z</DateUtc></FrequencyChange></FrequencyChanges></Clock>\n	Wisconsin-1167-3	60.008	1.0.0.242	1	-683244788	Full	3.0.3.80	3.0.3.80	11-26-2022	11/26/2022 8:27:06 AM	16:27:06	Keyboard	Keyboard	Keyboard	3.0.3.82	Keyboard	2					2	1	1		BlockProc2	List2	1											1	1	1				ColorProc2	List4											9	BUTTON1.png	BUTTON2.PNG	BUTTON3.png	BUTTON4.png	Redcircle2.png				7	1	9	{Button3}	0							0	TrialProc	ColorList2							1	{Button3}	Button	2	33	120498	0	{Button3}	2897	123395	color
Wisconsin	1167	3	<?xml version="1.0"?>\n<Clock xmlns:dt="urn:schemas-microsoft-com:datatypes"><Description dt:dt="string">E-Prime Primary Realtime Clock</Description><StartTime><Timestamp dt:dt="int">0</Timestamp><DateUtc dt:dt="string">2022-11-26T08:27:06Z</DateUtc></StartTime><FrequencyChanges><FrequencyChange><Frequency dt:dt="r8">10000000</Frequency><Timestamp dt:dt="r8">1682940886994</Timestamp><Current dt:dt="r8">0</Current><DateUtc dt:dt="string">2022-11-26T08:27:06Z</DateUtc></FrequencyChange></FrequencyChanges></Clock>\n	Wisconsin-1167-3	60.008	1.0.0.242	1	-683244788	Full	3.0.3.80	3.0.3.80	11-26-2022	11/26/2022 8:27:06 AM	16:27:06	Keyboard	Keyboard	Keyboard	3.0.3.82	Keyboard	2					2	1	1		BlockProc2	List2	1											1	1	1				ColorProc2	List4											10	BUTTON1.png	BUTTON2.PNG	BUTTON3.png	BUTTON4.png	redstar4.png				8	1	10	{Button3}	0							0	TrialProc	ColorList2							0	{Button3}	Button	2	50	125997	0	{Button2}	3125	129122	color
Wisconsin	1167	3	<?xml version="1.0"?>\n<Clock xmlns:dt="urn:schemas-microsoft-com:datatypes"><Description dt:dt="string">E-Prime Primary Realtime Clock</Description><StartTime><Timestamp dt:dt="int">0</Timestamp><DateUtc dt:dt="string">2022-11-26T08:27:06Z</DateUtc></StartTime><FrequencyChanges><FrequencyChange><Frequency dt:dt="r8">10000000</Frequency><Timestamp dt:dt="r8">1682940886994</Timestamp><Current dt:dt="r8">0</Current><DateUtc dt:dt="string">2022-11-26T08:27:06Z</DateUtc></FrequencyChange></FrequencyChanges></Clock>\n	Wisconsin-1167-3	60.008	1.0.0.242	1	-683244788	Full	3.0.3.80	3.0.3.80	11-26-2022	11/26/2022 8:27:06 AM	16:27:06	Keyboard	Keyboard	Keyboard	3.0.3.82	Keyboard	2					2	1	1		BlockProc2	List2	2											2	1	2				ShapeProc2	List4											1	Button1.png	Button2.png	Button3.png	Button4.png	redcircle1.png							{button1}	0							0	TrialProc	ShapeList2				4	1	1	0	{button1}	Button	1	50	131729	5015		0	0	Shape
Wisconsin	1167	3	<?xml version="1.0"?>\n<Clock xmlns:dt="urn:schemas-microsoft-com:datatypes"><Description dt:dt="string">E-Prime Primary Realtime Clock</Description><StartTime><Timestamp dt:dt="int">0</Timestamp><DateUtc dt:dt="string">2022-11-26T08:27:06Z</DateUtc></StartTime><FrequencyChanges><FrequencyChange><Frequency dt:dt="r8">10000000</Frequency><Timestamp dt:dt="r8">1682940886994</Timestamp><Current dt:dt="r8">0</Current><DateUtc dt:dt="string">2022-11-26T08:27:06Z</DateUtc></FrequencyChange></FrequencyChanges></Clock>\n	Wisconsin-1167-3	60.008	1.0.0.242	1	-683244788	Full	3.0.3.80	3.0.3.80	11-26-2022	11/26/2022 8:27:06 AM	16:27:06	Keyboard	Keyboard	Keyboard	3.0.3.82	Keyboard	2					2	1	1		BlockProc2	List2	2											2	1	2				ShapeProc2	List4											2	Button1.png	Button2.png	Button3.png	Button4.png	Bluetriangle2.png							{button2}	0							0	TrialProc	ShapeList2				2	1	2	0	{button2}	Button	2	49	139310	0	{Button4}	1909	141219	Shape
Wisconsin	1167	3	<?xml version="1.0"?>\n<Clock xmlns:dt="urn:schemas-microsoft-com:datatypes"><Description dt:dt="string">E-Prime Primary Realtime Clock</Description><StartTime><Timestamp dt:dt="int">0</Timestamp><DateUtc dt:dt="string">2022-11-26T08:27:06Z</DateUtc></StartTime><FrequencyChanges><FrequencyChange><Frequency dt:dt="r8">10000000</Frequency><Timestamp dt:dt="r8">1682940886994</Timestamp><Current dt:dt="r8">0</Current><DateUtc dt:dt="string">2022-11-26T08:27:06Z</DateUtc></FrequencyChange></FrequencyChanges></Clock>\n	Wisconsin-1167-3	60.008	1.0.0.242	1	-683244788	Full	3.0.3.80	3.0.3.80	11-26-2022	11/26/2022 8:27:06 AM	16:27:06	Keyboard	Keyboard	Keyboard	3.0.3.82	Keyboard	2					2	1	1		BlockProc2	List2	2											2	1	2				ShapeProc2	List4											3	Button1.png	Button2.png	Button3.png	Button4.png	Redtriangle3.png							{button2}	0							0	TrialProc	ShapeList2				7	1	3	0	{button2}	Button	2	50	143809	0	{Button3}	1746	145555	Shape
Wisconsin	1167	3	<?xml version="1.0"?>\n<Clock xmlns:dt="urn:schemas-microsoft-com:datatypes"><Description dt:dt="string">E-Prime Primary Realtime Clock</Description><StartTime><Timestamp dt:dt="int">0</Timestamp><DateUtc dt:dt="string">2022-11-26T08:27:06Z</DateUtc></StartTime><FrequencyChanges><FrequencyChange><Frequency dt:dt="r8">10000000</Frequency><Timestamp dt:dt="r8">1682940886994</Timestamp><Current dt:dt="r8">0</Current><DateUtc dt:dt="string">2022-11-26T08:27:06Z</DateUtc></FrequencyChange></FrequencyChanges></Clock>\n	Wisconsin-1167-3	60.008	1.0.0.242	1	-683244788	Full	3.0.3.80	3.0.3.80	11-26-2022	11/26/2022 8:27:06 AM	16:27:06	Keyboard	Keyboard	Keyboard	3.0.3.82	Keyboard	2					2	1	1		BlockProc2	List2	2											2	1	2				ShapeProc2	List4											4	Button1.png	Button2.png	Button3.png	Button4.png	Bluecircle3.png							{button1}	0							0	TrialProc	ShapeList2				1	1	4	0	{button1}	Button	2	50	148158	0	{Button4}	2709	150867	Shape
Wisconsin	1167	3	<?xml version="1.0"?>\n<Clock xmlns:dt="urn:schemas-microsoft-com:datatypes"><Description dt:dt="string">E-Prime Primary Realtime Clock</Description><StartTime><Timestamp dt:dt="int">0</Timestamp><DateUtc dt:dt="string">2022-11-26T08:27:06Z</DateUtc></StartTime><FrequencyChanges><FrequencyChange><Frequency dt:dt="r8">10000000</Frequency><Timestamp dt:dt="r8">1682940886994</Timestamp><Current dt:dt="r8">0</Current><DateUtc dt:dt="string">2022-11-26T08:27:06Z</DateUtc></FrequencyChange></FrequencyChanges></Clock>\n	Wisconsin-1167-3	60.008	1.0.0.242	1	-683244788	Full	3.0.3.80	3.0.3.80	11-26-2022	11/26/2022 8:27:06 AM	16:27:06	Keyboard	Keyboard	Keyboard	3.0.3.82	Keyboard	2					2	1	1		BlockProc2	List2	2											2	1	2				ShapeProc2	List4											5	Button1.png	Button2.png	Button3.png	Button4.png	yellowcross4.png							{button3}	0							0	TrialProc	ShapeList2				8	1	5	0	{button3}	Button	2	50	153457	0	{Button2}	3058	156515	Shape
Wisconsin	1167	3	<?xml version="1.0"?>\n<Clock xmlns:dt="urn:schemas-microsoft-com:datatypes"><Description dt:dt="string">E-Prime Primary Realtime Clock</Description><StartTime><Timestamp dt:dt="int">0</Timestamp><DateUtc dt:dt="string">2022-11-26T08:27:06Z</DateUtc></StartTime><FrequencyChanges><FrequencyChange><Frequency dt:dt="r8">10000000</Frequency><Timestamp dt:dt="r8">1682940886994</Timestamp><Current dt:dt="r8">0</Current><DateUtc dt:dt="string">2022-11-26T08:27:06Z</DateUtc></FrequencyChange></FrequencyChanges></Clock>\n	Wisconsin-1167-3	60.008	1.0.0.242	1	-683244788	Full	3.0.3.80	3.0.3.80	11-26-2022	11/26/2022 8:27:06 AM	16:27:06	Keyboard	Keyboard	Keyboard	3.0.3.82	Keyboard	2					2	1	1		BlockProc2	List2	2											2	1	2				ShapeProc2	List4											6	Button1.png	Button2.png	Button3.png	Button4.png	Yellowstar2.png							{button4}	0							0	TrialProc	ShapeList2				9	1	6	1	{button4}	Button	2	49	159105	0	{Button4}	2330	161435	Shape
Wisconsin	1167	3	<?xml version="1.0"?>\n<Clock xmlns:dt="urn:schemas-microsoft-com:datatypes"><Description dt:dt="string">E-Prime Primary Realtime Clock</Description><StartTime><Timestamp dt:dt="int">0</Timestamp><DateUtc dt:dt="string">2022-11-26T08:27:06Z</DateUtc></StartTime><FrequencyChanges><FrequencyChange><Frequency dt:dt="r8">10000000</Frequency><Timestamp dt:dt="r8">1682940886994</Timestamp><Current dt:dt="r8">0</Current><DateUtc dt:dt="string">2022-11-26T08:27:06Z</DateUtc></FrequencyChange></FrequencyChanges></Clock>\n	Wisconsin-1167-3	60.008	1.0.0.242	1	-683244788	Full	3.0.3.80	3.0.3.80	11-26-2022	11/26/2022 8:27:06 AM	16:27:06	Keyboard	Keyboard	Keyboard	3.0.3.82	Keyboard	2					2	1	1		BlockProc2	List2	2											2	1	2				ShapeProc2	List4											7	Button1.png	Button2.png	Button3.png	Button4.png	Redcross2.png							{button3}	0							0	TrialProc	ShapeList2				5	1	7	1	{button3}	Button	1	50	164038	0	{Button3}	2005	166043	Shape
Wisconsin	1167	3	<?xml version="1.0"?>\n<Clock xmlns:dt="urn:schemas-microsoft-com:datatypes"><Description dt:dt="string">E-Prime Primary Realtime Clock</Description><StartTime><Timestamp dt:dt="int">0</Timestamp><DateUtc dt:dt="string">2022-11-26T08:27:06Z</DateUtc></StartTime><FrequencyChanges><FrequencyChange><Frequency dt:dt="r8">10000000</Frequency><Timestamp dt:dt="r8">1682940886994</Timestamp><Current dt:dt="r8">0</Current><DateUtc dt:dt="string">2022-11-26T08:27:06Z</DateUtc></FrequencyChange></FrequencyChanges></Clock>\n	Wisconsin-1167-3	60.008	1.0.0.242	1	-683244788	Full	3.0.3.80	3.0.3.80	11-26-2022	11/26/2022 8:27:06 AM	16:27:06	Keyboard	Keyboard	Keyboard	3.0.3.82	Keyboard	2					2	1	1		BlockProc2	List2	2											2	1	2				ShapeProc2	List4											8	Button1.png	Button2.png	Button3.png	Button4.png	Redstar3.png							{button4}	0							0	TrialProc	ShapeList2				6	1	8	1	{button4}	Button	10	50	168637	0	{Button4}	2397	171034	Shape
Wisconsin	1167	3	<?xml version="1.0"?>\n<Clock xmlns:dt="urn:schemas-microsoft-com:datatypes"><Description dt:dt="string">E-Prime Primary Realtime Clock</Description><StartTime><Timestamp dt:dt="int">0</Timestamp><DateUtc dt:dt="string">2022-11-26T08:27:06Z</DateUtc></StartTime><FrequencyChanges><FrequencyChange><Frequency dt:dt="r8">10000000</Frequency><Timestamp dt:dt="r8">1682940886994</Timestamp><Current dt:dt="r8">0</Current><DateUtc dt:dt="string">2022-11-26T08:27:06Z</DateUtc></FrequencyChange></FrequencyChanges></Clock>\n	Wisconsin-1167-3	60.008	1.0.0.242	1	-683244788	Full	3.0.3.80	3.0.3.80	11-26-2022	11/26/2022 8:27:06 AM	16:27:06	Keyboard	Keyboard	Keyboard	3.0.3.82	Keyboard	2					2	1	1		BlockProc2	List2	2											2	1	2				ShapeProc2	List4											9	Button1.png	Button2.png	Button3.png	Button4.png	Greenstar3.png							{button4}	0							0	TrialProc	ShapeList2				3	1	9	1	{button4}	Button	1	34	173619	0	{Button4}	2728	176347	Shape
Wisconsin	1167	3	<?xml version="1.0"?>\n<Clock xmlns:dt="urn:schemas-microsoft-com:datatypes"><Description dt:dt="string">E-Prime Primary Realtime Clock</Description><StartTime><Timestamp dt:dt="int">0</Timestamp><DateUtc dt:dt="string">2022-11-26T08:27:06Z</DateUtc></StartTime><FrequencyChanges><FrequencyChange><Frequency dt:dt="r8">10000000</Frequency><Timestamp dt:dt="r8">1682940886994</Timestamp><Current dt:dt="r8">0</Current><DateUtc dt:dt="string">2022-11-26T08:27:06Z</DateUtc></FrequencyChange></FrequencyChanges></Clock>\n	Wisconsin-1167-3	60.008	1.0.0.242	1	-683244788	Full	3.0.3.80	3.0.3.80	11-26-2022	11/26/2022 8:27:06 AM	16:27:06	Keyboard	Keyboard	Keyboard	3.0.3.82	Keyboard	2					2	1	1		BlockProc2	List2	2											2	1	2				ShapeProc2	List4											10	Button1.png	Button2.png	Button3.png	Button4.png	Yellowtriangle1.png							{button2}	0							0	TrialProc	ShapeList2				10	1	10	1	{button2}	Button	9	33	178934	0	{Button2}	2892	181826	Shape
Wisconsin	1167	3	<?xml version="1.0"?>\n<Clock xmlns:dt="urn:schemas-microsoft-com:datatypes"><Description dt:dt="string">E-Prime Primary Realtime Clock</Description><StartTime><Timestamp dt:dt="int">0</Timestamp><DateUtc dt:dt="string">2022-11-26T08:27:06Z</DateUtc></StartTime><FrequencyChanges><FrequencyChange><Frequency dt:dt="r8">10000000</Frequency><Timestamp dt:dt="r8">1682940886994</Timestamp><Current dt:dt="r8">0</Current><DateUtc dt:dt="string">2022-11-26T08:27:06Z</DateUtc></FrequencyChange></FrequencyChanges></Clock>\n	Wisconsin-1167-3	60.008	1.0.0.242	1	-683244788	Full	3.0.3.80	3.0.3.80	11-26-2022	11/26/2022 8:27:06 AM	16:27:06	Keyboard	Keyboard	Keyboard	3.0.3.82	Keyboard	2					2	1	1		BlockProc2	List2	3											3	1	3				NumberProc2	List4											1	Button1.png	Button2.png	Button3.png	Button4.png	Bluecross3.png							{button3}	0				1	1	1	0	TrialProc	NumberList2							1	{button3}	Button	2	33	184399	0	{Button3}	3484	187883	number
Wisconsin	1167	3	<?xml version="1.0"?>\n<Clock xmlns:dt="urn:schemas-microsoft-com:datatypes"><Description dt:dt="string">E-Prime Primary Realtime Clock</Description><StartTime><Timestamp dt:dt="int">0</Timestamp><DateUtc dt:dt="string">2022-11-26T08:27:06Z</DateUtc></StartTime><FrequencyChanges><FrequencyChange><Frequency dt:dt="r8">10000000</Frequency><Timestamp dt:dt="r8">1682940886994</Timestamp><Current dt:dt="r8">0</Current><DateUtc dt:dt="string">2022-11-26T08:27:06Z</DateUtc></FrequencyChange></FrequencyChanges></Clock>\n	Wisconsin-1167-3	60.008	1.0.0.242	1	-683244788	Full	3.0.3.80	3.0.3.80	11-26-2022	11/26/2022 8:27:06 AM	16:27:06	Keyboard	Keyboard	Keyboard	3.0.3.82	Keyboard	2					2	1	1		BlockProc2	List2	3											3	1	3				NumberProc2	List4											2	Button1.png	Button2.png	Button3.png	Button4.png	Bluestar4.png							{button2}	0				2	1	2	0	TrialProc	NumberList2							0	{button2}	Button	2	50	190481	0	{Button4}	3058	193539	number
Wisconsin	1167	3	<?xml version="1.0"?>\n<Clock xmlns:dt="urn:schemas-microsoft-com:datatypes"><Description dt:dt="string">E-Prime Primary Realtime Clock</Description><StartTime><Timestamp dt:dt="int">0</Timestamp><DateUtc dt:dt="string">2022-11-26T08:27:06Z</DateUtc></StartTime><FrequencyChanges><FrequencyChange><Frequency dt:dt="r8">10000000</Frequency><Timestamp dt:dt="r8">1682940886994</Timestamp><Current dt:dt="r8">0</Current><DateUtc dt:dt="string">2022-11-26T08:27:06Z</DateUtc></FrequencyChange></FrequencyChanges></Clock>\n	Wisconsin-1167-3	60.008	1.0.0.242	1	-683244788	Full	3.0.3.80	3.0.3.80	11-26-2022	11/26/2022 8:27:06 AM	16:27:06	Keyboard	Keyboard	Keyboard	3.0.3.82	Keyboard	2					2	1	1		BlockProc2	List2	3											3	1	3				NumberProc2	List4											3	Button1.png	Button2.png	Button3.png	Button4.png	Bluetriangle4.png							{button2}	0				3	1	3	0	TrialProc	NumberList2							1	{button2}	Button	11	33	196113	0	{Button2}	3298	199411	number
Wisconsin	1167	3	<?xml version="1.0"?>\n<Clock xmlns:dt="urn:schemas-microsoft-com:datatypes"><Description dt:dt="string">E-Prime Primary Realtime Clock</Description><StartTime><Timestamp dt:dt="int">0</Timestamp><DateUtc dt:dt="string">2022-11-26T08:27:06Z</DateUtc></StartTime><FrequencyChanges><FrequencyChange><Frequency dt:dt="r8">10000000</Frequency><Timestamp dt:dt="r8">1682940886994</Timestamp><Current dt:dt="r8">0</Current><DateUtc dt:dt="string">2022-11-26T08:27:06Z</DateUtc></FrequencyChange></FrequencyChanges></Clock>\n	Wisconsin-1167-3	60.008	1.0.0.242	1	-683244788	Full	3.0.3.80	3.0.3.80	11-26-2022	11/26/2022 8:27:06 AM	16:27:06	Keyboard	Keyboard	Keyboard	3.0.3.82	Keyboard	2					2	1	1		BlockProc2	List2	3											3	1	3				NumberProc2	List4											4	Button1.png	Button2.png	Button3.png	Button4.png	Greencross2.png							{button1}	0				4	1	4	0	TrialProc	NumberList2							1	{button1}	Button	2	33	201995	0	{Button1}	1960	203955	number
Wisconsin	1167	3	<?xml version="1.0"?>\n<Clock xmlns:dt="urn:schemas-microsoft-com:datatypes"><Description dt:dt="string">E-Prime Primary Realtime Clock</Description><StartTime><Timestamp dt:dt="int">0</Timestamp><DateUtc dt:dt="string">2022-11-26T08:27:06Z</DateUtc></StartTime><FrequencyChanges><FrequencyChange><Frequency dt:dt="r8">10000000</Frequency><Timestamp dt:dt="r8">1682940886994</Timestamp><Current dt:dt="r8">0</Current><DateUtc dt:dt="string">2022-11-26T08:27:06Z</DateUtc></FrequencyChange></FrequencyChanges></Clock>\n	Wisconsin-1167-3	60.008	1.0.0.242	1	-683244788	Full	3.0.3.80	3.0.3.80	11-26-2022	11/26/2022 8:27:06 AM	16:27:06	Keyboard	Keyboard	Keyboard	3.0.3.82	Keyboard	2					2	1	1		BlockProc2	List2	3											3	1	3				NumberProc2	List4											5	Button1.png	Button2.png	Button3.png	Button4.png	Greenstar1.png							{button4}	0				5	1	5	0	TrialProc	NumberList2							1	{button4}	Button	2	33	206527	0	{Button4}	2140	208667	number
Wisconsin	1167	3	<?xml version="1.0"?>\n<Clock xmlns:dt="urn:schemas-microsoft-com:datatypes"><Description dt:dt="string">E-Prime Primary Realtime Clock</Description><StartTime><Timestamp dt:dt="int">0</Timestamp><DateUtc dt:dt="string">2022-11-26T08:27:06Z</DateUtc></StartTime><FrequencyChanges><FrequencyChange><Frequency dt:dt="r8">10000000</Frequency><Timestamp dt:dt="r8">1682940886994</Timestamp><Current dt:dt="r8">0</Current><DateUtc dt:dt="string">2022-11-26T08:27:06Z</DateUtc></FrequencyChange></FrequencyChanges></Clock>\n	Wisconsin-1167-3	60.008	1.0.0.242	1	-683244788	Full	3.0.3.80	3.0.3.80	11-26-2022	11/26/2022 8:27:06 AM	16:27:06	Keyboard	Keyboard	Keyboard	3.0.3.82	Keyboard	2					2	1	1		BlockProc2	List2	3											3	1	3				NumberProc2	List4											6	Button1.png	Button2.png	Button3.png	Button4.png	Redstar1.png							{button4}	0				6	1	6	0	TrialProc	NumberList2							1	{button4}	Button	1	33	211243	0	{Button4}	2904	214147	number
Wisconsin	1167	3	<?xml version="1.0"?>\n<Clock xmlns:dt="urn:schemas-microsoft-com:datatypes"><Description dt:dt="string">E-Prime Primary Realtime Clock</Description><StartTime><Timestamp dt:dt="int">0</Timestamp><DateUtc dt:dt="string">2022-11-26T08:27:06Z</DateUtc></StartTime><FrequencyChanges><FrequencyChange><Frequency dt:dt="r8">10000000</Frequency><Timestamp dt:dt="r8">1682940886994</Timestamp><Current dt:dt="r8">0</Current><DateUtc dt:dt="string">2022-11-26T08:27:06Z</DateUtc></FrequencyChange></FrequencyChanges></Clock>\n	Wisconsin-1167-3	60.008	1.0.0.242	1	-683244788	Full	3.0.3.80	3.0.3.80	11-26-2022	11/26/2022 8:27:06 AM	16:27:06	Keyboard	Keyboard	Keyboard	3.0.3.82	Keyboard	2					2	1	1		BlockProc2	List2	3											3	1	3				NumberProc2	List4											7	Button1.png	Button2.png	Button3.png	Button4.png	Redtriangle2.png							{button1}	0				7	1	7	0	TrialProc	NumberList2							0	{button1}	Button	1	33	216725	0	{Button3}	3350	220075	number
Wisconsin	1167	3	<?xml version="1.0"?>\n<Clock xmlns:dt="urn:schemas-microsoft-com:datatypes"><Description dt:dt="string">E-Prime Primary Realtime Clock</Description><StartTime><Timestamp dt:dt="int">0</Timestamp><DateUtc dt:dt="string">2022-11-26T08:27:06Z</DateUtc></StartTime><FrequencyChanges><FrequencyChange><Frequency dt:dt="r8">10000000</Frequency><Timestamp dt:dt="r8">1682940886994</Timestamp><Current dt:dt="r8">0</Current><DateUtc dt:dt="string">2022-11-26T08:27:06Z</DateUtc></FrequencyChange></FrequencyChanges></Clock>\n	Wisconsin-1167-3	60.008	1.0.0.242	1	-683244788	Full	3.0.3.80	3.0.3.80	11-26-2022	11/26/2022 8:27:06 AM	16:27:06	Keyboard	Keyboard	Keyboard	3.0.3.82	Keyboard	2					2	1	1		BlockProc2	List2	3											3	1	3				NumberProc2	List4											8	Button1.png	Button2.png	Button3.png	Button4.png	yellowcircle4.png							{button2}	0				8	1	8	0	TrialProc	NumberList2							0	{button2}	Button	9	33	222657	0	{Button1}	2058	224715	number
Wisconsin	1167	3	<?xml version="1.0"?>\n<Clock xmlns:dt="urn:schemas-microsoft-com:datatypes"><Description dt:dt="string">E-Prime Primary Realtime Clock</Description><StartTime><Timestamp dt:dt="int">0</Timestamp><DateUtc dt:dt="string">2022-11-26T08:27:06Z</DateUtc></StartTime><FrequencyChanges><FrequencyChange><Frequency dt:dt="r8">10000000</Frequency><Timestamp dt:dt="r8">1682940886994</Timestamp><Current dt:dt="r8">0</Current><DateUtc dt:dt="string">2022-11-26T08:27:06Z</DateUtc></FrequencyChange></FrequencyChanges></Clock>\n	Wisconsin-1167-3	60.008	1.0.0.242	1	-683244788	Full	3.0.3.80	3.0.3.80	11-26-2022	11/26/2022 8:27:06 AM	16:27:06	Keyboard	Keyboard	Keyboard	3.0.3.82	Keyboard	2					2	1	1		BlockProc2	List2	3											3	1	3				NumberProc2	List4											9	Button1.png	Button2.png	Button3.png	Button4.png	Yellowcross2.png							{button1}	0				9	1	9	0	TrialProc	NumberList2							0	{button1}	Button	1	33	227289	0	{Button2}	3474	230763	number
Wisconsin	1167	3	<?xml version="1.0"?>\n<Clock xmlns:dt="urn:schemas-microsoft-com:datatypes"><Description dt:dt="string">E-Prime Primary Realtime Clock</Description><StartTime><Timestamp dt:dt="int">0</Timestamp><DateUtc dt:dt="string">2022-11-26T08:27:06Z</DateUtc></StartTime><FrequencyChanges><FrequencyChange><Frequency dt:dt="r8">10000000</Frequency><Timestamp dt:dt="r8">1682940886994</Timestamp><Current dt:dt="r8">0</Current><DateUtc dt:dt="string">2022-11-26T08:27:06Z</DateUtc></FrequencyChange></FrequencyChanges></Clock>\n	Wisconsin-1167-3	60.008	1.0.0.242	1	-683244788	Full	3.0.3.80	3.0.3.80	11-26-2022	11/26/2022 8:27:06 AM	16:27:06	Keyboard	Keyboard	Keyboard	3.0.3.82	Keyboard	2					2	1	1		BlockProc2	List2	3											3	1	3				NumberProc2	List4											10	Button1.png	Button2.png	Button3.png	Button4.png	Yellowtriangle2.png							{button3}	0				10	1	10	0	TrialProc	NumberList2							0	{button3}	Button	2	50	233354	0	{Button1}	1433	234787	number
Wisconsin	1167	3	<?xml version="1.0"?>\n<Clock xmlns:dt="urn:schemas-microsoft-com:datatypes"><Description dt:dt="string">E-Prime Primary Realtime Clock</Description><StartTime><Timestamp dt:dt="int">0</Timestamp><DateUtc dt:dt="string">2022-11-26T08:27:06Z</DateUtc></StartTime><FrequencyChanges><FrequencyChange><Frequency dt:dt="r8">10000000</Frequency><Timestamp dt:dt="r8">1682940886994</Timestamp><Current dt:dt="r8">0</Current><DateUtc dt:dt="string">2022-11-26T08:27:06Z</DateUtc></FrequencyChange></FrequencyChanges></Clock>\n	Wisconsin-1167-3	60.008	1.0.0.242	1	-683244788	Full	3.0.3.80	3.0.3.80	11-26-2022	11/26/2022 8:27:06 AM	16:27:06	Keyboard	Keyboard	Keyboard	3.0.3.82	Keyboard	3					1	1	2		BlockProc	List2	1								1	1	1							ColorProc	List3											1	BUTTON1.png	BUTTON2.PNG	BUTTON3.png	BUTTON4.png	greentriangle1.png	6	1	1				{button1}	0							0	TrialProc	ColorList							0	{button1}	Button	2	49	237386	0	{Button2}	2177	239563	Color
Wisconsin	1167	3	<?xml version="1.0"?>\n<Clock xmlns:dt="urn:schemas-microsoft-com:datatypes"><Description dt:dt="string">E-Prime Primary Realtime Clock</Description><StartTime><Timestamp dt:dt="int">0</Timestamp><DateUtc dt:dt="string">2022-11-26T08:27:06Z</DateUtc></StartTime><FrequencyChanges><FrequencyChange><Frequency dt:dt="r8">10000000</Frequency><Timestamp dt:dt="r8">1682940886994</Timestamp><Current dt:dt="r8">0</Current><DateUtc dt:dt="string">2022-11-26T08:27:06Z</DateUtc></FrequencyChange></FrequencyChanges></Clock>\n	Wisconsin-1167-3	60.008	1.0.0.242	1	-683244788	Full	3.0.3.80	3.0.3.80	11-26-2022	11/26/2022 8:27:06 AM	16:27:06	Keyboard	Keyboard	Keyboard	3.0.3.82	Keyboard	3					1	1	2		BlockProc	List2	1								1	1	1							ColorProc	List3											2	BUTTON1.png	BUTTON2.PNG	BUTTON3.png	BUTTON4.png	greentriangle3.png	7	1	2				{button1}	0							0	TrialProc	ColorList							0	{button1}	Button	2	50	242152	0	{Button3}	2851	245003	Color
Wisconsin	1167	3	<?xml version="1.0"?>\n<Clock xmlns:dt="urn:schemas-microsoft-com:datatypes"><Description dt:dt="string">E-Prime Primary Realtime Clock</Description><StartTime><Timestamp dt:dt="int">0</Timestamp><DateUtc dt:dt="string">2022-11-26T08:27:06Z</DateUtc></StartTime><FrequencyChanges><FrequencyChange><Frequency dt:dt="r8">10000000</Frequency><Timestamp dt:dt="r8">1682940886994</Timestamp><Current dt:dt="r8">0</Current><DateUtc dt:dt="string">2022-11-26T08:27:06Z</DateUtc></FrequencyChange></FrequencyChanges></Clock>\n	Wisconsin-1167-3	60.008	1.0.0.242	1	-683244788	Full	3.0.3.80	3.0.3.80	11-26-2022	11/26/2022 8:27:06 AM	16:27:06	Keyboard	Keyboard	Keyboard	3.0.3.82	Keyboard	3					1	1	2		BlockProc	List2	1								1	1	1							ColorProc	List3											3	BUTTON1.png	BUTTON2.PNG	BUTTON3.png	BUTTON4.png	bluecircle1.png	1	1	3				{button4}	0							0	TrialProc	ColorList							1	{button4}	Button	2	33	247584	0	{Button4}	3619	251203	Color
Wisconsin	1167	3	<?xml version="1.0"?>\n<Clock xmlns:dt="urn:schemas-microsoft-com:datatypes"><Description dt:dt="string">E-Prime Primary Realtime Clock</Description><StartTime><Timestamp dt:dt="int">0</Timestamp><DateUtc dt:dt="string">2022-11-26T08:27:06Z</DateUtc></StartTime><FrequencyChanges><FrequencyChange><Frequency dt:dt="r8">10000000</Frequency><Timestamp dt:dt="r8">1682940886994</Timestamp><Current dt:dt="r8">0</Current><DateUtc dt:dt="string">2022-11-26T08:27:06Z</DateUtc></FrequencyChange></FrequencyChanges></Clock>\n	Wisconsin-1167-3	60.008	1.0.0.242	1	-683244788	Full	3.0.3.80	3.0.3.80	11-26-2022	11/26/2022 8:27:06 AM	16:27:06	Keyboard	Keyboard	Keyboard	3.0.3.82	Keyboard	3					1	1	2		BlockProc	List2	1								1	1	1							ColorProc	List3											4	BUTTON1.png	BUTTON2.PNG	BUTTON3.png	BUTTON4.png	redcircle3.png	8	1	4				{button3}	0							0	TrialProc	ColorList							1	{button3}	Button	2	50	253799	0	{Button3}	1756	255555	Color
Wisconsin	1167	3	<?xml version="1.0"?>\n<Clock xmlns:dt="urn:schemas-microsoft-com:datatypes"><Description dt:dt="string">E-Prime Primary Realtime Clock</Description><StartTime><Timestamp dt:dt="int">0</Timestamp><DateUtc dt:dt="string">2022-11-26T08:27:06Z</DateUtc></StartTime><FrequencyChanges><FrequencyChange><Frequency dt:dt="r8">10000000</Frequency><Timestamp dt:dt="r8">1682940886994</Timestamp><Current dt:dt="r8">0</Current><DateUtc dt:dt="string">2022-11-26T08:27:06Z</DateUtc></FrequencyChange></FrequencyChanges></Clock>\n	Wisconsin-1167-3	60.008	1.0.0.242	1	-683244788	Full	3.0.3.80	3.0.3.80	11-26-2022	11/26/2022 8:27:06 AM	16:27:06	Keyboard	Keyboard	Keyboard	3.0.3.82	Keyboard	3					1	1	2		BlockProc	List2	1								1	1	1							ColorProc	List3											5	BUTTON1.png	BUTTON2.PNG	BUTTON3.png	BUTTON4.png	bluetriangle3.png	3	1	5				{button4}	0							0	TrialProc	ColorList							1	{button4}	Button	2	33	258131	0	{Button4}	1496	259627	Color
Wisconsin	1167	3	<?xml version="1.0"?>\n<Clock xmlns:dt="urn:schemas-microsoft-com:datatypes"><Description dt:dt="string">E-Prime Primary Realtime Clock</Description><StartTime><Timestamp dt:dt="int">0</Timestamp><DateUtc dt:dt="string">2022-11-26T08:27:06Z</DateUtc></StartTime><FrequencyChanges><FrequencyChange><Frequency dt:dt="r8">10000000</Frequency><Timestamp dt:dt="r8">1682940886994</Timestamp><Current dt:dt="r8">0</Current><DateUtc dt:dt="string">2022-11-26T08:27:06Z</DateUtc></FrequencyChange></FrequencyChanges></Clock>\n	Wisconsin-1167-3	60.008	1.0.0.242	1	-683244788	Full	3.0.3.80	3.0.3.80	11-26-2022	11/26/2022 8:27:06 AM	16:27:06	Keyboard	Keyboard	Keyboard	3.0.3.82	Keyboard	3					1	1	2		BlockProc	List2	1								1	1	1							ColorProc	List3											6	BUTTON1.png	BUTTON2.PNG	BUTTON3.png	BUTTON4.png	yellowstar3.png	10	1	6				{button2}	0							0	TrialProc	ColorList							1	{button2}	Button	3	49	262230	0	{Button2}	1645	263875	Color
Wisconsin	1167	3	<?xml version="1.0"?>\n<Clock xmlns:dt="urn:schemas-microsoft-com:datatypes"><Description dt:dt="string">E-Prime Primary Realtime Clock</Description><StartTime><Timestamp dt:dt="int">0</Timestamp><DateUtc dt:dt="string">2022-11-26T08:27:06Z</DateUtc></StartTime><FrequencyChanges><FrequencyChange><Frequency dt:dt="r8">10000000</Frequency><Timestamp dt:dt="r8">1682940886994</Timestamp><Current dt:dt="r8">0</Current><DateUtc dt:dt="string">2022-11-26T08:27:06Z</DateUtc></FrequencyChange></FrequencyChanges></Clock>\n	Wisconsin-1167-3	60.008	1.0.0.242	1	-683244788	Full	3.0.3.80	3.0.3.80	11-26-2022	11/26/2022 8:27:06 AM	16:27:06	Keyboard	Keyboard	Keyboard	3.0.3.82	Keyboard	3					1	1	2		BlockProc	List2	1								1	1	1							ColorProc	List3											7	BUTTON1.png	BUTTON2.PNG	BUTTON3.png	BUTTON4.png	greencircle3.png	4	1	7				{button1}	0							0	TrialProc	ColorList							1	{button1}	Button	1	33	266446	0	{Button1}	1653	268099	Color
Wisconsin	1167	3	<?xml version="1.0"?>\n<Clock xmlns:dt="urn:schemas-microsoft-com:datatypes"><Description dt:dt="string">E-Prime Primary Realtime Clock</Description><StartTime><Timestamp dt:dt="int">0</Timestamp><DateUtc dt:dt="string">2022-11-26T08:27:06Z</DateUtc></StartTime><FrequencyChanges><FrequencyChange><Frequency dt:dt="r8">10000000</Frequency><Timestamp dt:dt="r8">1682940886994</Timestamp><Current dt:dt="r8">0</Current><DateUtc dt:dt="string">2022-11-26T08:27:06Z</DateUtc></FrequencyChange></FrequencyChanges></Clock>\n	Wisconsin-1167-3	60.008	1.0.0.242	1	-683244788	Full	3.0.3.80	3.0.3.80	11-26-2022	11/26/2022 8:27:06 AM	16:27:06	Keyboard	Keyboard	Keyboard	3.0.3.82	Keyboard	3					1	1	2		BlockProc	List2	1								1	1	1							ColorProc	List3											8	BUTTON1.png	BUTTON2.PNG	BUTTON3.png	BUTTON4.png	bluecross2.png	2	1	8				{button4}	0							0	TrialProc	ColorList							1	{button4}	Button	2	50	270695	0	{Button4}	2052	272747	Color
Wisconsin	1167	3	<?xml version="1.0"?>\n<Clock xmlns:dt="urn:schemas-microsoft-com:datatypes"><Description dt:dt="string">E-Prime Primary Realtime Clock</Description><StartTime><Timestamp dt:dt="int">0</Timestamp><DateUtc dt:dt="string">2022-11-26T08:27:06Z</DateUtc></StartTime><FrequencyChanges><FrequencyChange><Frequency dt:dt="r8">10000000</Frequency><Timestamp dt:dt="r8">1682940886994</Timestamp><Current dt:dt="r8">0</Current><DateUtc dt:dt="string">2022-11-26T08:27:06Z</DateUtc></FrequencyChange></FrequencyChanges></Clock>\n	Wisconsin-1167-3	60.008	1.0.0.242	1	-683244788	Full	3.0.3.80	3.0.3.80	11-26-2022	11/26/2022 8:27:06 AM	16:27:06	Keyboard	Keyboard	Keyboard	3.0.3.82	Keyboard	3					1	1	2		BlockProc	List2	1								1	1	1							ColorProc	List3											9	BUTTON1.png	BUTTON2.PNG	BUTTON3.png	BUTTON4.png	greenstar2.png	5	1	9				{button1}	0							0	TrialProc	ColorList							1	{button1}	Button	2	33	275327	0	{Button1}	2044	277371	Color
Wisconsin	1167	3	<?xml version="1.0"?>\n<Clock xmlns:dt="urn:schemas-microsoft-com:datatypes"><Description dt:dt="string">E-Prime Primary Realtime Clock</Description><StartTime><Timestamp dt:dt="int">0</Timestamp><DateUtc dt:dt="string">2022-11-26T08:27:06Z</DateUtc></StartTime><FrequencyChanges><FrequencyChange><Frequency dt:dt="r8">10000000</Frequency><Timestamp dt:dt="r8">1682940886994</Timestamp><Current dt:dt="r8">0</Current><DateUtc dt:dt="string">2022-11-26T08:27:06Z</DateUtc></FrequencyChange></FrequencyChanges></Clock>\n	Wisconsin-1167-3	60.008	1.0.0.242	1	-683244788	Full	3.0.3.80	3.0.3.80	11-26-2022	11/26/2022 8:27:06 AM	16:27:06	Keyboard	Keyboard	Keyboard	3.0.3.82	Keyboard	3					1	1	2		BlockProc	List2	1								1	1	1							ColorProc	List3											10	BUTTON1.png	BUTTON2.PNG	BUTTON3.png	BUTTON4.png	yellowcircle1.png	9	1	10				{button2}	0							0	TrialProc	ColorList							0	{button2}	Button	9	33	279943	0	{Button1}	2004	281947	Color
Wisconsin	1167	3	<?xml version="1.0"?>\n<Clock xmlns:dt="urn:schemas-microsoft-com:datatypes"><Description dt:dt="string">E-Prime Primary Realtime Clock</Description><StartTime><Timestamp dt:dt="int">0</Timestamp><DateUtc dt:dt="string">2022-11-26T08:27:06Z</DateUtc></StartTime><FrequencyChanges><FrequencyChange><Frequency dt:dt="r8">10000000</Frequency><Timestamp dt:dt="r8">1682940886994</Timestamp><Current dt:dt="r8">0</Current><DateUtc dt:dt="string">2022-11-26T08:27:06Z</DateUtc></FrequencyChange></FrequencyChanges></Clock>\n	Wisconsin-1167-3	60.008	1.0.0.242	1	-683244788	Full	3.0.3.80	3.0.3.80	11-26-2022	11/26/2022 8:27:06 AM	16:27:06	Keyboard	Keyboard	Keyboard	3.0.3.82	Keyboard	3					1	1	2		BlockProc	List2	2								3	1	2							NumberProc	List3											1	Button1.png	Button2.png	Button3.png	Button4.png	Bluecircle4.png							{Button2}	0	1	1	1				0	TrialProc	NumberList							0	{Button2}	Button	2	33	284525	0	{Button4}	1894	286419	number
Wisconsin	1167	3	<?xml version="1.0"?>\n<Clock xmlns:dt="urn:schemas-microsoft-com:datatypes"><Description dt:dt="string">E-Prime Primary Realtime Clock</Description><StartTime><Timestamp dt:dt="int">0</Timestamp><DateUtc dt:dt="string">2022-11-26T08:27:06Z</DateUtc></StartTime><FrequencyChanges><FrequencyChange><Frequency dt:dt="r8">10000000</Frequency><Timestamp dt:dt="r8">1682940886994</Timestamp><Current dt:dt="r8">0</Current><DateUtc dt:dt="string">2022-11-26T08:27:06Z</DateUtc></FrequencyChange></FrequencyChanges></Clock>\n	Wisconsin-1167-3	60.008	1.0.0.242	1	-683244788	Full	3.0.3.80	3.0.3.80	11-26-2022	11/26/2022 8:27:06 AM	16:27:06	Keyboard	Keyboard	Keyboard	3.0.3.82	Keyboard	3					1	1	2		BlockProc	List2	2								3	1	2							NumberProc	List3											2	Button1.png	Button2.png	Button3.png	Button4.png	Greencircle4.png							{Button2}	0	4	1	2				0	TrialProc	NumberList							0	{Button2}	Button	2	50	289007	0	{Button1}	2076	291083	number
Wisconsin	1167	3	<?xml version="1.0"?>\n<Clock xmlns:dt="urn:schemas-microsoft-com:datatypes"><Description dt:dt="string">E-Prime Primary Realtime Clock</Description><StartTime><Timestamp dt:dt="int">0</Timestamp><DateUtc dt:dt="string">2022-11-26T08:27:06Z</DateUtc></StartTime><FrequencyChanges><FrequencyChange><Frequency dt:dt="r8">10000000</Frequency><Timestamp dt:dt="r8">1682940886994</Timestamp><Current dt:dt="r8">0</Current><DateUtc dt:dt="string">2022-11-26T08:27:06Z</DateUtc></FrequencyChange></FrequencyChanges></Clock>\n	Wisconsin-1167-3	60.008	1.0.0.242	1	-683244788	Full	3.0.3.80	3.0.3.80	11-26-2022	11/26/2022 8:27:06 AM	16:27:06	Keyboard	Keyboard	Keyboard	3.0.3.82	Keyboard	3					1	1	2		BlockProc	List2	2								3	1	2							NumberProc	List3											3	Button1.png	Button2.png	Button3.png	Button4.png	Redtriangle4.png							{Button2}	0	8	1	3				0	TrialProc	NumberList							0	{Button2}	Button	1	50	293673	0	{Button3}	4002	297675	number
Wisconsin	1167	3	<?xml version="1.0"?>\n<Clock xmlns:dt="urn:schemas-microsoft-com:datatypes"><Description dt:dt="string">E-Prime Primary Realtime Clock</Description><StartTime><Timestamp dt:dt="int">0</Timestamp><DateUtc dt:dt="string">2022-11-26T08:27:06Z</DateUtc></StartTime><FrequencyChanges><FrequencyChange><Frequency dt:dt="r8">10000000</Frequency><Timestamp dt:dt="r8">1682940886994</Timestamp><Current dt:dt="r8">0</Current><DateUtc dt:dt="string">2022-11-26T08:27:06Z</DateUtc></FrequencyChange></FrequencyChanges></Clock>\n	Wisconsin-1167-3	60.008	1.0.0.242	1	-683244788	Full	3.0.3.80	3.0.3.80	11-26-2022	11/26/2022 8:27:06 AM	16:27:06	Keyboard	Keyboard	Keyboard	3.0.3.82	Keyboard	3					1	1	2		BlockProc	List2	2								3	1	2							NumberProc	List3											4	Button1.png	Button2.png	Button3.png	Button4.png	Bluetriangle1.png							{Button4}	0	3	1	4				0	TrialProc	NumberList							1	{Button4}	Button	2	50	300271	0	{Button4}	2540	302811	number
Wisconsin	1167	3	<?xml version="1.0"?>\n<Clock xmlns:dt="urn:schemas-microsoft-com:datatypes"><Description dt:dt="string">E-Prime Primary Realtime Clock</Description><StartTime><Timestamp dt:dt="int">0</Timestamp><DateUtc dt:dt="string">2022-11-26T08:27:06Z</DateUtc></StartTime><FrequencyChanges><FrequencyChange><Frequency dt:dt="r8">10000000</Frequency><Timestamp dt:dt="r8">1682940886994</Timestamp><Current dt:dt="r8">0</Current><DateUtc dt:dt="string">2022-11-26T08:27:06Z</DateUtc></FrequencyChange></FrequencyChanges></Clock>\n	Wisconsin-1167-3	60.008	1.0.0.242	1	-683244788	Full	3.0.3.80	3.0.3.80	11-26-2022	11/26/2022 8:27:06 AM	16:27:06	Keyboard	Keyboard	Keyboard	3.0.3.82	Keyboard	3					1	1	2		BlockProc	List2	2								3	1	2							NumberProc	List3											5	Button1.png	Button2.png	Button3.png	Button4.png	Yellowcross3.png							{Button3}	0	10	1	5				0	TrialProc	NumberList							1	{Button3}	Button	2	50	305403	0	{Button3}	3280	308683	number
Wisconsin	1167	3	<?xml version="1.0"?>\n<Clock xmlns:dt="urn:schemas-microsoft-com:datatypes"><Description dt:dt="string">E-Prime Primary Realtime Clock</Description><StartTime><Timestamp dt:dt="int">0</Timestamp><DateUtc dt:dt="string">2022-11-26T08:27:06Z</DateUtc></StartTime><FrequencyChanges><FrequencyChange><Frequency dt:dt="r8">10000000</Frequency><Timestamp dt:dt="r8">1682940886994</Timestamp><Current dt:dt="r8">0</Current><DateUtc dt:dt="string">2022-11-26T08:27:06Z</DateUtc></FrequencyChange></FrequencyChanges></Clock>\n	Wisconsin-1167-3	60.008	1.0.0.242	1	-683244788	Full	3.0.3.80	3.0.3.80	11-26-2022	11/26/2022 8:27:06 AM	16:27:06	Keyboard	Keyboard	Keyboard	3.0.3.82	Keyboard	3					1	1	2		BlockProc	List2	2								3	1	2							NumberProc	List3											6	Button1.png	Button2.png	Button3.png	Button4.png	Redstar2.png							{Button1}	0	7	1	6				0	TrialProc	NumberList							0	{Button1}	Button	2	33	311268	0	{Button4}	3879	315147	number
Wisconsin	1167	3	<?xml version="1.0"?>\n<Clock xmlns:dt="urn:schemas-microsoft-com:datatypes"><Description dt:dt="string">E-Prime Primary Realtime Clock</Description><StartTime><Timestamp dt:dt="int">0</Timestamp><DateUtc dt:dt="string">2022-11-26T08:27:06Z</DateUtc></StartTime><FrequencyChanges><FrequencyChange><Frequency dt:dt="r8">10000000</Frequency><Timestamp dt:dt="r8">1682940886994</Timestamp><Current dt:dt="r8">0</Current><DateUtc dt:dt="string">2022-11-26T08:27:06Z</DateUtc></FrequencyChange></FrequencyChanges></Clock>\n	Wisconsin-1167-3	60.008	1.0.0.242	1	-683244788	Full	3.0.3.80	3.0.3.80	11-26-2022	11/26/2022 8:27:06 AM	16:27:06	Keyboard	Keyboard	Keyboard	3.0.3.82	Keyboard	3					1	1	2		BlockProc	List2	2								3	1	2							NumberProc	List3											7	Button1.png	Button2.png	Button3.png	Button4.png	Greencross3.png							{Button3}	0	5	1	7				0	TrialProc	NumberList							1	{Button3}	Button	2	50	317750	0	{Button3}	2981	320731	number
Wisconsin	1167	3	<?xml version="1.0"?>\n<Clock xmlns:dt="urn:schemas-microsoft-com:datatypes"><Description dt:dt="string">E-Prime Primary Realtime Clock</Description><StartTime><Timestamp dt:dt="int">0</Timestamp><DateUtc dt:dt="string">2022-11-26T08:27:06Z</DateUtc></StartTime><FrequencyChanges><FrequencyChange><Frequency dt:dt="r8">10000000</Frequency><Timestamp dt:dt="r8">1682940886994</Timestamp><Current dt:dt="r8">0</Current><DateUtc dt:dt="string">2022-11-26T08:27:06Z</DateUtc></FrequencyChange></FrequencyChanges></Clock>\n	Wisconsin-1167-3	60.008	1.0.0.242	1	-683244788	Full	3.0.3.80	3.0.3.80	11-26-2022	11/26/2022 8:27:06 AM	16:27:06	Keyboard	Keyboard	Keyboard	3.0.3.82	Keyboard	3					1	1	2		BlockProc	List2	2								3	1	2							NumberProc	List3											8	Button1.png	Button2.png	Button3.png	Button4.png	Bluestar2.png							{Button1}	0	2	1	8				0	TrialProc	NumberList							0	{Button1}	Button	2	50	323332	0	{Button4}	4359	327691	number
Wisconsin	1167	3	<?xml version="1.0"?>\n<Clock xmlns:dt="urn:schemas-microsoft-com:datatypes"><Description dt:dt="string">E-Prime Primary Realtime Clock</Description><StartTime><Timestamp dt:dt="int">0</Timestamp><DateUtc dt:dt="string">2022-11-26T08:27:06Z</DateUtc></StartTime><FrequencyChanges><FrequencyChange><Frequency dt:dt="r8">10000000</Frequency><Timestamp dt:dt="r8">1682940886994</Timestamp><Current dt:dt="r8">0</Current><DateUtc dt:dt="string">2022-11-26T08:27:06Z</DateUtc></FrequencyChange></FrequencyChanges></Clock>\n	Wisconsin-1167-3	60.008	1.0.0.242	1	-683244788	Full	3.0.3.80	3.0.3.80	11-26-2022	11/26/2022 8:27:06 AM	16:27:06	Keyboard	Keyboard	Keyboard	3.0.3.82	Keyboard	3					1	1	2		BlockProc	List2	2								3	1	2							NumberProc	List3											9	Button1.png	Button2.png	Button3.png	Button4.png	Yellowcross1.png							{Button4}	0	9	1	9				0	TrialProc	NumberList							0	{Button4}	Button	1	33	330264	5015		0	0	number
Wisconsin	1167	3	<?xml version="1.0"?>\n<Clock xmlns:dt="urn:schemas-microsoft-com:datatypes"><Description dt:dt="string">E-Prime Primary Realtime Clock</Description><StartTime><Timestamp dt:dt="int">0</Timestamp><DateUtc dt:dt="string">2022-11-26T08:27:06Z</DateUtc></StartTime><FrequencyChanges><FrequencyChange><Frequency dt:dt="r8">10000000</Frequency><Timestamp dt:dt="r8">1682940886994</Timestamp><Current dt:dt="r8">0</Current><DateUtc dt:dt="string">2022-11-26T08:27:06Z</DateUtc></FrequencyChange></FrequencyChanges></Clock>\n	Wisconsin-1167-3	60.008	1.0.0.242	1	-683244788	Full	3.0.3.80	3.0.3.80	11-26-2022	11/26/2022 8:27:06 AM	16:27:06	Keyboard	Keyboard	Keyboard	3.0.3.82	Keyboard	3					1	1	2		BlockProc	List2	2								3	1	2							NumberProc	List3											10	Button1.png	Button2.png	Button3.png	Button4.png	Redcircle4.png							{Button2}	0	6	1	10				0	TrialProc	NumberList							0	{Button2}	Button	2	49	337845	0	{Button3}	3094	340939	number
Wisconsin	1167	3	<?xml version="1.0"?>\n<Clock xmlns:dt="urn:schemas-microsoft-com:datatypes"><Description dt:dt="string">E-Prime Primary Realtime Clock</Description><StartTime><Timestamp dt:dt="int">0</Timestamp><DateUtc dt:dt="string">2022-11-26T08:27:06Z</DateUtc></StartTime><FrequencyChanges><FrequencyChange><Frequency dt:dt="r8">10000000</Frequency><Timestamp dt:dt="r8">1682940886994</Timestamp><Current dt:dt="r8">0</Current><DateUtc dt:dt="string">2022-11-26T08:27:06Z</DateUtc></FrequencyChange></FrequencyChanges></Clock>\n	Wisconsin-1167-3	60.008	1.0.0.242	1	-683244788	Full	3.0.3.80	3.0.3.80	11-26-2022	11/26/2022 8:27:06 AM	16:27:06	Keyboard	Keyboard	Keyboard	3.0.3.82	Keyboard	3					1	1	2		BlockProc	List2	3								2	1	3							ShapeProc	List3											1	Button1.png	Button2.png	Button3.png	Button4.png	Redcross4.png							{Button3}	0							0	TrialProc	ShapeList	6	1	1				0	{Button3}	Button	2	50	343527	0	{Button2}	2012	345539	Shape
Wisconsin	1167	3	<?xml version="1.0"?>\n<Clock xmlns:dt="urn:schemas-microsoft-com:datatypes"><Description dt:dt="string">E-Prime Primary Realtime Clock</Description><StartTime><Timestamp dt:dt="int">0</Timestamp><DateUtc dt:dt="string">2022-11-26T08:27:06Z</DateUtc></StartTime><FrequencyChanges><FrequencyChange><Frequency dt:dt="r8">10000000</Frequency><Timestamp dt:dt="r8">1682940886994</Timestamp><Current dt:dt="r8">0</Current><DateUtc dt:dt="string">2022-11-26T08:27:06Z</DateUtc></FrequencyChange></FrequencyChanges></Clock>\n	Wisconsin-1167-3	60.008	1.0.0.242	1	-683244788	Full	3.0.3.80	3.0.3.80	11-26-2022	11/26/2022 8:27:06 AM	16:27:06	Keyboard	Keyboard	Keyboard	3.0.3.82	Keyboard	3					1	1	2		BlockProc	List2	3								2	1	3							ShapeProc	List3											2	Button1.png	Button2.png	Button3.png	Button4.png	Bluecircle2.png							{Button1}	0							0	TrialProc	ShapeList	1	1	2				0	{Button1}	Button	1	50	348143	0	{Button4}	3788	351931	Shape
Wisconsin	1167	3	<?xml version="1.0"?>\n<Clock xmlns:dt="urn:schemas-microsoft-com:datatypes"><Description dt:dt="string">E-Prime Primary Realtime Clock</Description><StartTime><Timestamp dt:dt="int">0</Timestamp><DateUtc dt:dt="string">2022-11-26T08:27:06Z</DateUtc></StartTime><FrequencyChanges><FrequencyChange><Frequency dt:dt="r8">10000000</Frequency><Timestamp dt:dt="r8">1682940886994</Timestamp><Current dt:dt="r8">0</Current><DateUtc dt:dt="string">2022-11-26T08:27:06Z</DateUtc></FrequencyChange></FrequencyChanges></Clock>\n	Wisconsin-1167-3	60.008	1.0.0.242	1	-683244788	Full	3.0.3.80	3.0.3.80	11-26-2022	11/26/2022 8:27:06 AM	16:27:06	Keyboard	Keyboard	Keyboard	3.0.3.82	Keyboard	3					1	1	2		BlockProc	List2	3								2	1	3							ShapeProc	List3											3	Button1.png	Button2.png	Button3.png	Button4.png	Yellowstar4.png							{Button4}	0							0	TrialProc	ShapeList	10	1	3				0	{Button4}	Button	2	33	354508	0	{Button2}	4191	358699	Shape
Wisconsin	1167	3	<?xml version="1.0"?>\n<Clock xmlns:dt="urn:schemas-microsoft-com:datatypes"><Description dt:dt="string">E-Prime Primary Realtime Clock</Description><StartTime><Timestamp dt:dt="int">0</Timestamp><DateUtc dt:dt="string">2022-11-26T08:27:06Z</DateUtc></StartTime><FrequencyChanges><FrequencyChange><Frequency dt:dt="r8">10000000</Frequency><Timestamp dt:dt="r8">1682940886994</Timestamp><Current dt:dt="r8">0</Current><DateUtc dt:dt="string">2022-11-26T08:27:06Z</DateUtc></FrequencyChange></FrequencyChanges></Clock>\n	Wisconsin-1167-3	60.008	1.0.0.242	1	-683244788	Full	3.0.3.80	3.0.3.80	11-26-2022	11/26/2022 8:27:06 AM	16:27:06	Keyboard	Keyboard	Keyboard	3.0.3.82	Keyboard	3					1	1	2		BlockProc	List2	3								2	1	3							ShapeProc	List3											4	Button1.png	Button2.png	Button3.png	Button4.png	yellowcircle3.png							{Button1}	0							0	TrialProc	ShapeList	8	1	4				0	{Button1}	Button	2	33	361290	0	{Button3}	3977	365267	Shape
Wisconsin	1167	3	<?xml version="1.0"?>\n<Clock xmlns:dt="urn:schemas-microsoft-com:datatypes"><Description dt:dt="string">E-Prime Primary Realtime Clock</Description><StartTime><Timestamp dt:dt="int">0</Timestamp><DateUtc dt:dt="string">2022-11-26T08:27:06Z</DateUtc></StartTime><FrequencyChanges><FrequencyChange><Frequency dt:dt="r8">10000000</Frequency><Timestamp dt:dt="r8">1682940886994</Timestamp><Current dt:dt="r8">0</Current><DateUtc dt:dt="string">2022-11-26T08:27:06Z</DateUtc></FrequencyChange></FrequencyChanges></Clock>\n	Wisconsin-1167-3	60.008	1.0.0.242	1	-683244788	Full	3.0.3.80	3.0.3.80	11-26-2022	11/26/2022 8:27:06 AM	16:27:06	Keyboard	Keyboard	Keyboard	3.0.3.82	Keyboard	3					1	1	2		BlockProc	List2	3								2	1	3							ShapeProc	List3											5	Button1.png	Button2.png	Button3.png	Button4.png	Greencross1.png							{Button3}	0							0	TrialProc	ShapeList	3	1	5				0	{Button3}	Button	2	49	367871	0	{Button1}	2860	370731	Shape
Wisconsin	1167	3	<?xml version="1.0"?>\n<Clock xmlns:dt="urn:schemas-microsoft-com:datatypes"><Description dt:dt="string">E-Prime Primary Realtime Clock</Description><StartTime><Timestamp dt:dt="int">0</Timestamp><DateUtc dt:dt="string">2022-11-26T08:27:06Z</DateUtc></StartTime><FrequencyChanges><FrequencyChange><Frequency dt:dt="r8">10000000</Frequency><Timestamp dt:dt="r8">1682940886994</Timestamp><Current dt:dt="r8">0</Current><DateUtc dt:dt="string">2022-11-26T08:27:06Z</DateUtc></FrequencyChange></FrequencyChanges></Clock>\n	Wisconsin-1167-3	60.008	1.0.0.242	1	-683244788	Full	3.0.3.80	3.0.3.80	11-26-2022	11/26/2022 8:27:06 AM	16:27:06	Keyboard	Keyboard	Keyboard	3.0.3.82	Keyboard	3					1	1	2		BlockProc	List2	3								2	1	3							ShapeProc	List3											6	Button1.png	Button2.png	Button3.png	Button4.png	Yellowstar1.png							{Button4}	0							0	TrialProc	ShapeList	9	1	6				1	{Button4}	Button	2	50	373320	0	{Button4}	1995	375315	Shape
Wisconsin	1167	3	<?xml version="1.0"?>\n<Clock xmlns:dt="urn:schemas-microsoft-com:datatypes"><Description dt:dt="string">E-Prime Primary Realtime Clock</Description><StartTime><Timestamp dt:dt="int">0</Timestamp><DateUtc dt:dt="string">2022-11-26T08:27:06Z</DateUtc></StartTime><FrequencyChanges><FrequencyChange><Frequency dt:dt="r8">10000000</Frequency><Timestamp dt:dt="r8">1682940886994</Timestamp><Current dt:dt="r8">0</Current><DateUtc dt:dt="string">2022-11-26T08:27:06Z</DateUtc></FrequencyChange></FrequencyChanges></Clock>\n	Wisconsin-1167-3	60.008	1.0.0.242	1	-683244788	Full	3.0.3.80	3.0.3.80	11-26-2022	11/26/2022 8:27:06 AM	16:27:06	Keyboard	Keyboard	Keyboard	3.0.3.82	Keyboard	3					1	1	2		BlockProc	List2	3								2	1	3							ShapeProc	List3											7	Button1.png	Button2.png	Button3.png	Button4.png	Greentriangle4.png							{Button2}	0							0	TrialProc	ShapeList	4	1	7				1	{Button2}	Button	2	33	377902	0	{Button2}	2477	380379	Shape
Wisconsin	1167	3	<?xml version="1.0"?>\n<Clock xmlns:dt="urn:schemas-microsoft-com:datatypes"><Description dt:dt="string">E-Prime Primary Realtime Clock</Description><StartTime><Timestamp dt:dt="int">0</Timestamp><DateUtc dt:dt="string">2022-11-26T08:27:06Z</DateUtc></StartTime><FrequencyChanges><FrequencyChange><Frequency dt:dt="r8">10000000</Frequency><Timestamp dt:dt="r8">1682940886994</Timestamp><Current dt:dt="r8">0</Current><DateUtc dt:dt="string">2022-11-26T08:27:06Z</DateUtc></FrequencyChange></FrequencyChanges></Clock>\n	Wisconsin-1167-3	60.008	1.0.0.242	1	-683244788	Full	3.0.3.80	3.0.3.80	11-26-2022	11/26/2022 8:27:06 AM	16:27:06	Keyboard	Keyboard	Keyboard	3.0.3.82	Keyboard	3					1	1	2		BlockProc	List2	3								2	1	3							ShapeProc	List3											8	Button1.png	Button2.png	Button3.png	Button4.png	Redtriangle1.png							{Button2}	0							0	TrialProc	ShapeList	7	1	8				0	{Button2}	Button	2	33	382951	0	{Button4}	2820	385771	Shape
Wisconsin	1167	3	<?xml version="1.0"?>\n<Clock xmlns:dt="urn:schemas-microsoft-com:datatypes"><Description dt:dt="string">E-Prime Primary Realtime Clock</Description><StartTime><Timestamp dt:dt="int">0</Timestamp><DateUtc dt:dt="string">2022-11-26T08:27:06Z</DateUtc></StartTime><FrequencyChanges><FrequencyChange><Frequency dt:dt="r8">10000000</Frequency><Timestamp dt:dt="r8">1682940886994</Timestamp><Current dt:dt="r8">0</Current><DateUtc dt:dt="string">2022-11-26T08:27:06Z</DateUtc></FrequencyChange></FrequencyChanges></Clock>\n	Wisconsin-1167-3	60.008	1.0.0.242	1	-683244788	Full	3.0.3.80	3.0.3.80	11-26-2022	11/26/2022 8:27:06 AM	16:27:06	Keyboard	Keyboard	Keyboard	3.0.3.82	Keyboard	3					1	1	2		BlockProc	List2	3								2	1	3							ShapeProc	List3											9	Button1.png	Button2.png	Button3.png	Button4.png	Bluecross4.png							{Button3}	0							0	TrialProc	ShapeList	2	1	9				0	{Button3}	Button	1	33	388350	0	{Button2}	3045	391395	Shape
Wisconsin	1167	3	<?xml version="1.0"?>\n<Clock xmlns:dt="urn:schemas-microsoft-com:datatypes"><Description dt:dt="string">E-Prime Primary Realtime Clock</Description><StartTime><Timestamp dt:dt="int">0</Timestamp><DateUtc dt:dt="string">2022-11-26T08:27:06Z</DateUtc></StartTime><FrequencyChanges><FrequencyChange><Frequency dt:dt="r8">10000000</Frequency><Timestamp dt:dt="r8">1682940886994</Timestamp><Current dt:dt="r8">0</Current><DateUtc dt:dt="string">2022-11-26T08:27:06Z</DateUtc></FrequencyChange></FrequencyChanges></Clock>\n	Wisconsin-1167-3	60.008	1.0.0.242	1	-683244788	Full	3.0.3.80	3.0.3.80	11-26-2022	11/26/2022 8:27:06 AM	16:27:06	Keyboard	Keyboard	Keyboard	3.0.3.82	Keyboard	3					1	1	2		BlockProc	List2	3								2	1	3							ShapeProc	List3											10	Button1.png	Button2.png	Button3.png	Button4.png	Redcross1.png							{Button3}	0							0	TrialProc	ShapeList	5	1	10				1	{Button3}	Button	1	33	393982	0	{Button3}	2813	396795	Shape
