ExperimentName	Subject	Session	Clock.Information	DataFile.Basename	Display.RefreshRate	ExperimentVersion	Group	RandomSeed	RuntimeCapabilities	RuntimeVersion	RuntimeVersionExpected	SessionDate	SessionStartDateTimeUtc	SessionTime	Slide1.DEVICE	Slide2.DEVICE	Slide3.DEVICE	StudioVersion	Welcome.DEVICE	Block	GetReady.DEVICE	List1	List1.Cycle	List1.Sample	List2	List2.Cycle	List2.Sample	PracticeReady.DEVICE	Procedure[Block]	Running[Block]	Trial	CardIMG1[Trial]	CardIMG2[Trial]	CardIMG3[Trial]	CardIMG4[Trial]	CardStim[Trial]	Category	CorrectAnswer[Trial]	List3	List3.Cycle	List3.Sample	List4	List4.Cycle	List4.Sample	PracticeList	PracticeList.Cycle	PracticeList.Sample	Procedure[Trial]	Running[Trial]	Slide4.ACC	Slide4.CRESP	Slide4.DEVICE	Slide4.DurationError	Slide4.OnsetDelay	Slide4.OnsetTime	Slide4.OnsetToOnsetTime	Slide4.RESP	Slide4.RT	Slide4.RTTime	SubTrial	CardIMG1[SubTrial]	CardIMG2[SubTrial]	CardIMG3[SubTrial]	CardIMG4[SubTrial]	CardStim[SubTrial]	ColorList	ColorList.Cycle	ColorList.Sample	ColorList2	ColorList2.Cycle	ColorList2.Sample	CorrectAnswer[SubTrial]	NonPerseverativeError	NumberList	NumberList.Cycle	NumberList.Sample	NumberList2	NumberList2.Cycle	NumberList2.Sample	PerseverativeError	Procedure[SubTrial]	Running[SubTrial]	ShapeList	ShapeList.Cycle	ShapeList.Sample	ShapeList2	ShapeList2.Cycle	ShapeList2.Sample	Slide5.ACC	Slide5.CRESP	Slide5.DEVICE	Slide5.DurationError	Slide5.OnsetDelay	Slide5.OnsetTime	Slide5.OnsetToOnsetTime	Slide5.RESP	Slide5.RT	Slide5.RTTime	TrialType
Wisconsin	1168	3	<?xml version="1.0"?>\n<Clock xmlns:dt="urn:schemas-microsoft-com:datatypes"><Description dt:dt="string">E-Prime Primary Realtime Clock</Description><StartTime><Timestamp dt:dt="int">0</Timestamp><DateUtc dt:dt="string">2022-11-26T09:50:46Z</DateUtc></StartTime><FrequencyChanges><FrequencyChange><Frequency dt:dt="r8">10000000</Frequency><Timestamp dt:dt="r8">1733145470703</Timestamp><Current dt:dt="r8">0</Current><DateUtc dt:dt="string">2022-11-26T09:50:46Z</DateUtc></FrequencyChange></FrequencyChanges></Clock>\n	Wisconsin-1168-3	60.015	1.0.0.243	1	-2018261085	Full	3.0.3.80	3.0.3.80	11-26-2022	11/26/2022 9:50:47 AM	17:50:47	Keyboard	Keyboard	Keyboard	3.0.3.82	Keyboard	1	Keyboard	1	1	1				Keyboard	Practiceploc	List1	1	Button1.png	Button2.png	Button3.png	Button4.png	Greencircle3.png	顏色	{button1}							1	1	1	PracticeTrialProc	PracticeList	1	{button1}	Button	2	50	19410	0	{Button1}	2010	21420																																								
Wisconsin	1168	3	<?xml version="1.0"?>\n<Clock xmlns:dt="urn:schemas-microsoft-com:datatypes"><Description dt:dt="string">E-Prime Primary Realtime Clock</Description><StartTime><Timestamp dt:dt="int">0</Timestamp><DateUtc dt:dt="string">2022-11-26T09:50:46Z</DateUtc></StartTime><FrequencyChanges><FrequencyChange><Frequency dt:dt="r8">10000000</Frequency><Timestamp dt:dt="r8">1733145470703</Timestamp><Current dt:dt="r8">0</Current><DateUtc dt:dt="string">2022-11-26T09:50:46Z</DateUtc></FrequencyChange></FrequencyChanges></Clock>\n	Wisconsin-1168-3	60.015	1.0.0.243	1	-2018261085	Full	3.0.3.80	3.0.3.80	11-26-2022	11/26/2022 9:50:47 AM	17:50:47	Keyboard	Keyboard	Keyboard	3.0.3.82	Keyboard	1	Keyboard	1	1	1				Keyboard	Practiceploc	List1	2	Button1.png	Button2.png	Button3.png	Button4.png	Redstar2.png	顏色	{button3}							2	1	2	PracticeTrialProc	PracticeList	1	{button3}	Button	10	50	24009	0	{Button3}	1099	25108																																								
Wisconsin	1168	3	<?xml version="1.0"?>\n<Clock xmlns:dt="urn:schemas-microsoft-com:datatypes"><Description dt:dt="string">E-Prime Primary Realtime Clock</Description><StartTime><Timestamp dt:dt="int">0</Timestamp><DateUtc dt:dt="string">2022-11-26T09:50:46Z</DateUtc></StartTime><FrequencyChanges><FrequencyChange><Frequency dt:dt="r8">10000000</Frequency><Timestamp dt:dt="r8">1733145470703</Timestamp><Current dt:dt="r8">0</Current><DateUtc dt:dt="string">2022-11-26T09:50:46Z</DateUtc></FrequencyChange></FrequencyChanges></Clock>\n	Wisconsin-1168-3	60.015	1.0.0.243	1	-2018261085	Full	3.0.3.80	3.0.3.80	11-26-2022	11/26/2022 9:50:47 AM	17:50:47	Keyboard	Keyboard	Keyboard	3.0.3.82	Keyboard	1	Keyboard	1	1	1				Keyboard	Practiceploc	List1	3	Button1.png	Button2.png	Button3.png	Button4.png	Bluetriangle1.png	形狀	{button2}							3	1	3	PracticeTrialProc	PracticeList	1	{button2}	Button	9	33	27691	0	{Button2}	1489	29180																																								
Wisconsin	1168	3	<?xml version="1.0"?>\n<Clock xmlns:dt="urn:schemas-microsoft-com:datatypes"><Description dt:dt="string">E-Prime Primary Realtime Clock</Description><StartTime><Timestamp dt:dt="int">0</Timestamp><DateUtc dt:dt="string">2022-11-26T09:50:46Z</DateUtc></StartTime><FrequencyChanges><FrequencyChange><Frequency dt:dt="r8">10000000</Frequency><Timestamp dt:dt="r8">1733145470703</Timestamp><Current dt:dt="r8">0</Current><DateUtc dt:dt="string">2022-11-26T09:50:46Z</DateUtc></FrequencyChange></FrequencyChanges></Clock>\n	Wisconsin-1168-3	60.015	1.0.0.243	1	-2018261085	Full	3.0.3.80	3.0.3.80	11-26-2022	11/26/2022 9:50:47 AM	17:50:47	Keyboard	Keyboard	Keyboard	3.0.3.82	Keyboard	1	Keyboard	1	1	1				Keyboard	Practiceploc	List1	4	Button1.png	Button2.png	Button3.png	Button4.png	greenstar2.png	形狀	{Button4}							4	1	4	PracticeTrialProc	PracticeList	1	{Button4}	Button	9	50	31774	0	{Button4}	1774	33548																																								
Wisconsin	1168	3	<?xml version="1.0"?>\n<Clock xmlns:dt="urn:schemas-microsoft-com:datatypes"><Description dt:dt="string">E-Prime Primary Realtime Clock</Description><StartTime><Timestamp dt:dt="int">0</Timestamp><DateUtc dt:dt="string">2022-11-26T09:50:46Z</DateUtc></StartTime><FrequencyChanges><FrequencyChange><Frequency dt:dt="r8">10000000</Frequency><Timestamp dt:dt="r8">1733145470703</Timestamp><Current dt:dt="r8">0</Current><DateUtc dt:dt="string">2022-11-26T09:50:46Z</DateUtc></FrequencyChange></FrequencyChanges></Clock>\n	Wisconsin-1168-3	60.015	1.0.0.243	1	-2018261085	Full	3.0.3.80	3.0.3.80	11-26-2022	11/26/2022 9:50:47 AM	17:50:47	Keyboard	Keyboard	Keyboard	3.0.3.82	Keyboard	1	Keyboard	1	1	1				Keyboard	Practiceploc	List1	5	Button1.png	Button2.png	Button3.png	Button4.png	BlueCross4.png	圖案數目	{Button2}							5	1	5	PracticeTrialProc	PracticeList	1	{Button2}	Button	2	50	36139	0	{Button2}	1401	37540																																								
Wisconsin	1168	3	<?xml version="1.0"?>\n<Clock xmlns:dt="urn:schemas-microsoft-com:datatypes"><Description dt:dt="string">E-Prime Primary Realtime Clock</Description><StartTime><Timestamp dt:dt="int">0</Timestamp><DateUtc dt:dt="string">2022-11-26T09:50:46Z</DateUtc></StartTime><FrequencyChanges><FrequencyChange><Frequency dt:dt="r8">10000000</Frequency><Timestamp dt:dt="r8">1733145470703</Timestamp><Current dt:dt="r8">0</Current><DateUtc dt:dt="string">2022-11-26T09:50:46Z</DateUtc></FrequencyChange></FrequencyChanges></Clock>\n	Wisconsin-1168-3	60.015	1.0.0.243	1	-2018261085	Full	3.0.3.80	3.0.3.80	11-26-2022	11/26/2022 9:50:47 AM	17:50:47	Keyboard	Keyboard	Keyboard	3.0.3.82	Keyboard	1	Keyboard	1	1	1				Keyboard	Practiceploc	List1	6	Button1.png	Button2.png	Button3.png	Button4.png	yellowcircle2.png	圖案數目	{Button1}							6	1	6	PracticeTrialProc	PracticeList	1	{Button1}	Button	9	34	40122	0	{Button1}	1282	41404																																								
Wisconsin	1168	3	<?xml version="1.0"?>\n<Clock xmlns:dt="urn:schemas-microsoft-com:datatypes"><Description dt:dt="string">E-Prime Primary Realtime Clock</Description><StartTime><Timestamp dt:dt="int">0</Timestamp><DateUtc dt:dt="string">2022-11-26T09:50:46Z</DateUtc></StartTime><FrequencyChanges><FrequencyChange><Frequency dt:dt="r8">10000000</Frequency><Timestamp dt:dt="r8">1733145470703</Timestamp><Current dt:dt="r8">0</Current><DateUtc dt:dt="string">2022-11-26T09:50:46Z</DateUtc></FrequencyChange></FrequencyChanges></Clock>\n	Wisconsin-1168-3	60.015	1.0.0.243	1	-2018261085	Full	3.0.3.80	3.0.3.80	11-26-2022	11/26/2022 9:50:47 AM	17:50:47	Keyboard	Keyboard	Keyboard	3.0.3.82	Keyboard	2					1	1	1		BlockProc	List2	1								3	1	1							NumberProc	List3											1	Button1.png	Button2.png	Button3.png	Button4.png	Bluecircle4.png							{Button2}	0	1	1	1				0	TrialProc	NumberList							1	{Button2}	Button	1	33	53785	0	{Button2}	1099	54884	number
Wisconsin	1168	3	<?xml version="1.0"?>\n<Clock xmlns:dt="urn:schemas-microsoft-com:datatypes"><Description dt:dt="string">E-Prime Primary Realtime Clock</Description><StartTime><Timestamp dt:dt="int">0</Timestamp><DateUtc dt:dt="string">2022-11-26T09:50:46Z</DateUtc></StartTime><FrequencyChanges><FrequencyChange><Frequency dt:dt="r8">10000000</Frequency><Timestamp dt:dt="r8">1733145470703</Timestamp><Current dt:dt="r8">0</Current><DateUtc dt:dt="string">2022-11-26T09:50:46Z</DateUtc></FrequencyChange></FrequencyChanges></Clock>\n	Wisconsin-1168-3	60.015	1.0.0.243	1	-2018261085	Full	3.0.3.80	3.0.3.80	11-26-2022	11/26/2022 9:50:47 AM	17:50:47	Keyboard	Keyboard	Keyboard	3.0.3.82	Keyboard	2					1	1	1		BlockProc	List2	1								3	1	1							NumberProc	List3											2	Button1.png	Button2.png	Button3.png	Button4.png	Bluestar2.png							{Button1}	0	2	1	2				0	TrialProc	NumberList							1	{Button1}	Button	10	50	57484	0	{Button1}	3016	60500	number
Wisconsin	1168	3	<?xml version="1.0"?>\n<Clock xmlns:dt="urn:schemas-microsoft-com:datatypes"><Description dt:dt="string">E-Prime Primary Realtime Clock</Description><StartTime><Timestamp dt:dt="int">0</Timestamp><DateUtc dt:dt="string">2022-11-26T09:50:46Z</DateUtc></StartTime><FrequencyChanges><FrequencyChange><Frequency dt:dt="r8">10000000</Frequency><Timestamp dt:dt="r8">1733145470703</Timestamp><Current dt:dt="r8">0</Current><DateUtc dt:dt="string">2022-11-26T09:50:46Z</DateUtc></FrequencyChange></FrequencyChanges></Clock>\n	Wisconsin-1168-3	60.015	1.0.0.243	1	-2018261085	Full	3.0.3.80	3.0.3.80	11-26-2022	11/26/2022 9:50:47 AM	17:50:47	Keyboard	Keyboard	Keyboard	3.0.3.82	Keyboard	2					1	1	1		BlockProc	List2	1								3	1	1							NumberProc	List3											3	Button1.png	Button2.png	Button3.png	Button4.png	Bluetriangle1.png							{Button4}	0	3	1	3				0	TrialProc	NumberList							1	{Button4}	Button	1	33	63083	0	{Button4}	1329	64412	number
Wisconsin	1168	3	<?xml version="1.0"?>\n<Clock xmlns:dt="urn:schemas-microsoft-com:datatypes"><Description dt:dt="string">E-Prime Primary Realtime Clock</Description><StartTime><Timestamp dt:dt="int">0</Timestamp><DateUtc dt:dt="string">2022-11-26T09:50:46Z</DateUtc></StartTime><FrequencyChanges><FrequencyChange><Frequency dt:dt="r8">10000000</Frequency><Timestamp dt:dt="r8">1733145470703</Timestamp><Current dt:dt="r8">0</Current><DateUtc dt:dt="string">2022-11-26T09:50:46Z</DateUtc></FrequencyChange></FrequencyChanges></Clock>\n	Wisconsin-1168-3	60.015	1.0.0.243	1	-2018261085	Full	3.0.3.80	3.0.3.80	11-26-2022	11/26/2022 9:50:47 AM	17:50:47	Keyboard	Keyboard	Keyboard	3.0.3.82	Keyboard	2					1	1	1		BlockProc	List2	1								3	1	1							NumberProc	List3											4	Button1.png	Button2.png	Button3.png	Button4.png	Greencircle4.png							{Button2}	0	4	1	4				0	TrialProc	NumberList							1	{Button2}	Button	2	33	66998	0	{Button2}	926	67924	number
Wisconsin	1168	3	<?xml version="1.0"?>\n<Clock xmlns:dt="urn:schemas-microsoft-com:datatypes"><Description dt:dt="string">E-Prime Primary Realtime Clock</Description><StartTime><Timestamp dt:dt="int">0</Timestamp><DateUtc dt:dt="string">2022-11-26T09:50:46Z</DateUtc></StartTime><FrequencyChanges><FrequencyChange><Frequency dt:dt="r8">10000000</Frequency><Timestamp dt:dt="r8">1733145470703</Timestamp><Current dt:dt="r8">0</Current><DateUtc dt:dt="string">2022-11-26T09:50:46Z</DateUtc></FrequencyChange></FrequencyChanges></Clock>\n	Wisconsin-1168-3	60.015	1.0.0.243	1	-2018261085	Full	3.0.3.80	3.0.3.80	11-26-2022	11/26/2022 9:50:47 AM	17:50:47	Keyboard	Keyboard	Keyboard	3.0.3.82	Keyboard	2					1	1	1		BlockProc	List2	1								3	1	1							NumberProc	List3											5	Button1.png	Button2.png	Button3.png	Button4.png	Redtriangle4.png							{Button2}	0	8	1	5				0	TrialProc	NumberList							1	{Button2}	Button	10	50	70514	0	{Button2}	1066	71580	number
Wisconsin	1168	3	<?xml version="1.0"?>\n<Clock xmlns:dt="urn:schemas-microsoft-com:datatypes"><Description dt:dt="string">E-Prime Primary Realtime Clock</Description><StartTime><Timestamp dt:dt="int">0</Timestamp><DateUtc dt:dt="string">2022-11-26T09:50:46Z</DateUtc></StartTime><FrequencyChanges><FrequencyChange><Frequency dt:dt="r8">10000000</Frequency><Timestamp dt:dt="r8">1733145470703</Timestamp><Current dt:dt="r8">0</Current><DateUtc dt:dt="string">2022-11-26T09:50:46Z</DateUtc></FrequencyChange></FrequencyChanges></Clock>\n	Wisconsin-1168-3	60.015	1.0.0.243	1	-2018261085	Full	3.0.3.80	3.0.3.80	11-26-2022	11/26/2022 9:50:47 AM	17:50:47	Keyboard	Keyboard	Keyboard	3.0.3.82	Keyboard	2					1	1	1		BlockProc	List2	1								3	1	1							NumberProc	List3											6	Button1.png	Button2.png	Button3.png	Button4.png	Yellowcross3.png							{Button3}	0	10	1	6				0	TrialProc	NumberList							1	{Button3}	Button	10	50	74180	0	{Button3}	1024	75204	number
Wisconsin	1168	3	<?xml version="1.0"?>\n<Clock xmlns:dt="urn:schemas-microsoft-com:datatypes"><Description dt:dt="string">E-Prime Primary Realtime Clock</Description><StartTime><Timestamp dt:dt="int">0</Timestamp><DateUtc dt:dt="string">2022-11-26T09:50:46Z</DateUtc></StartTime><FrequencyChanges><FrequencyChange><Frequency dt:dt="r8">10000000</Frequency><Timestamp dt:dt="r8">1733145470703</Timestamp><Current dt:dt="r8">0</Current><DateUtc dt:dt="string">2022-11-26T09:50:46Z</DateUtc></FrequencyChange></FrequencyChanges></Clock>\n	Wisconsin-1168-3	60.015	1.0.0.243	1	-2018261085	Full	3.0.3.80	3.0.3.80	11-26-2022	11/26/2022 9:50:47 AM	17:50:47	Keyboard	Keyboard	Keyboard	3.0.3.82	Keyboard	2					1	1	1		BlockProc	List2	1								3	1	1							NumberProc	List3											7	Button1.png	Button2.png	Button3.png	Button4.png	Redstar2.png							{Button1}	0	7	1	7				0	TrialProc	NumberList							1	{Button1}	Button	10	33	77779	0	{Button1}	1817	79596	number
Wisconsin	1168	3	<?xml version="1.0"?>\n<Clock xmlns:dt="urn:schemas-microsoft-com:datatypes"><Description dt:dt="string">E-Prime Primary Realtime Clock</Description><StartTime><Timestamp dt:dt="int">0</Timestamp><DateUtc dt:dt="string">2022-11-26T09:50:46Z</DateUtc></StartTime><FrequencyChanges><FrequencyChange><Frequency dt:dt="r8">10000000</Frequency><Timestamp dt:dt="r8">1733145470703</Timestamp><Current dt:dt="r8">0</Current><DateUtc dt:dt="string">2022-11-26T09:50:46Z</DateUtc></FrequencyChange></FrequencyChanges></Clock>\n	Wisconsin-1168-3	60.015	1.0.0.243	1	-2018261085	Full	3.0.3.80	3.0.3.80	11-26-2022	11/26/2022 9:50:47 AM	17:50:47	Keyboard	Keyboard	Keyboard	3.0.3.82	Keyboard	2					1	1	1		BlockProc	List2	1								3	1	1							NumberProc	List3											8	Button1.png	Button2.png	Button3.png	Button4.png	Greencross3.png							{Button3}	0	5	1	8				0	TrialProc	NumberList							1	{Button3}	Button	2	33	82178	0	{Button3}	1170	83348	number
Wisconsin	1168	3	<?xml version="1.0"?>\n<Clock xmlns:dt="urn:schemas-microsoft-com:datatypes"><Description dt:dt="string">E-Prime Primary Realtime Clock</Description><StartTime><Timestamp dt:dt="int">0</Timestamp><DateUtc dt:dt="string">2022-11-26T09:50:46Z</DateUtc></StartTime><FrequencyChanges><FrequencyChange><Frequency dt:dt="r8">10000000</Frequency><Timestamp dt:dt="r8">1733145470703</Timestamp><Current dt:dt="r8">0</Current><DateUtc dt:dt="string">2022-11-26T09:50:46Z</DateUtc></FrequencyChange></FrequencyChanges></Clock>\n	Wisconsin-1168-3	60.015	1.0.0.243	1	-2018261085	Full	3.0.3.80	3.0.3.80	11-26-2022	11/26/2022 9:50:47 AM	17:50:47	Keyboard	Keyboard	Keyboard	3.0.3.82	Keyboard	2					1	1	1		BlockProc	List2	1								3	1	1							NumberProc	List3											9	Button1.png	Button2.png	Button3.png	Button4.png	Redcircle4.png							{Button2}	0	6	1	9				0	TrialProc	NumberList							1	{Button2}	Button	2	33	85927	0	{Button2}	813	86740	number
Wisconsin	1168	3	<?xml version="1.0"?>\n<Clock xmlns:dt="urn:schemas-microsoft-com:datatypes"><Description dt:dt="string">E-Prime Primary Realtime Clock</Description><StartTime><Timestamp dt:dt="int">0</Timestamp><DateUtc dt:dt="string">2022-11-26T09:50:46Z</DateUtc></StartTime><FrequencyChanges><FrequencyChange><Frequency dt:dt="r8">10000000</Frequency><Timestamp dt:dt="r8">1733145470703</Timestamp><Current dt:dt="r8">0</Current><DateUtc dt:dt="string">2022-11-26T09:50:46Z</DateUtc></FrequencyChange></FrequencyChanges></Clock>\n	Wisconsin-1168-3	60.015	1.0.0.243	1	-2018261085	Full	3.0.3.80	3.0.3.80	11-26-2022	11/26/2022 9:50:47 AM	17:50:47	Keyboard	Keyboard	Keyboard	3.0.3.82	Keyboard	2					1	1	1		BlockProc	List2	1								3	1	1							NumberProc	List3											10	Button1.png	Button2.png	Button3.png	Button4.png	Yellowcross1.png							{Button4}	0	9	1	10				0	TrialProc	NumberList							1	{Button4}	Button	10	33	89326	0	{Button4}	2206	91532	number
Wisconsin	1168	3	<?xml version="1.0"?>\n<Clock xmlns:dt="urn:schemas-microsoft-com:datatypes"><Description dt:dt="string">E-Prime Primary Realtime Clock</Description><StartTime><Timestamp dt:dt="int">0</Timestamp><DateUtc dt:dt="string">2022-11-26T09:50:46Z</DateUtc></StartTime><FrequencyChanges><FrequencyChange><Frequency dt:dt="r8">10000000</Frequency><Timestamp dt:dt="r8">1733145470703</Timestamp><Current dt:dt="r8">0</Current><DateUtc dt:dt="string">2022-11-26T09:50:46Z</DateUtc></FrequencyChange></FrequencyChanges></Clock>\n	Wisconsin-1168-3	60.015	1.0.0.243	1	-2018261085	Full	3.0.3.80	3.0.3.80	11-26-2022	11/26/2022 9:50:47 AM	17:50:47	Keyboard	Keyboard	Keyboard	3.0.3.82	Keyboard	2					1	1	1		BlockProc	List2	2								1	1	2							ColorProc	List3											1	BUTTON1.png	BUTTON2.PNG	BUTTON3.png	BUTTON4.png	greenstar2.png	5	1	1				{button1}	0							0	TrialProc	ColorList							1	{button1}	Button	12	33	94108	0	{Button1}	1000	95108	Color
Wisconsin	1168	3	<?xml version="1.0"?>\n<Clock xmlns:dt="urn:schemas-microsoft-com:datatypes"><Description dt:dt="string">E-Prime Primary Realtime Clock</Description><StartTime><Timestamp dt:dt="int">0</Timestamp><DateUtc dt:dt="string">2022-11-26T09:50:46Z</DateUtc></StartTime><FrequencyChanges><FrequencyChange><Frequency dt:dt="r8">10000000</Frequency><Timestamp dt:dt="r8">1733145470703</Timestamp><Current dt:dt="r8">0</Current><DateUtc dt:dt="string">2022-11-26T09:50:46Z</DateUtc></FrequencyChange></FrequencyChanges></Clock>\n	Wisconsin-1168-3	60.015	1.0.0.243	1	-2018261085	Full	3.0.3.80	3.0.3.80	11-26-2022	11/26/2022 9:50:47 AM	17:50:47	Keyboard	Keyboard	Keyboard	3.0.3.82	Keyboard	2					1	1	1		BlockProc	List2	2								1	1	2							ColorProc	List3											2	BUTTON1.png	BUTTON2.PNG	BUTTON3.png	BUTTON4.png	redcircle3.png	8	1	2				{button3}	0							0	TrialProc	ColorList							1	{button3}	Button	2	33	97691	0	{Button3}	769	98460	Color
Wisconsin	1168	3	<?xml version="1.0"?>\n<Clock xmlns:dt="urn:schemas-microsoft-com:datatypes"><Description dt:dt="string">E-Prime Primary Realtime Clock</Description><StartTime><Timestamp dt:dt="int">0</Timestamp><DateUtc dt:dt="string">2022-11-26T09:50:46Z</DateUtc></StartTime><FrequencyChanges><FrequencyChange><Frequency dt:dt="r8">10000000</Frequency><Timestamp dt:dt="r8">1733145470703</Timestamp><Current dt:dt="r8">0</Current><DateUtc dt:dt="string">2022-11-26T09:50:46Z</DateUtc></FrequencyChange></FrequencyChanges></Clock>\n	Wisconsin-1168-3	60.015	1.0.0.243	1	-2018261085	Full	3.0.3.80	3.0.3.80	11-26-2022	11/26/2022 9:50:47 AM	17:50:47	Keyboard	Keyboard	Keyboard	3.0.3.82	Keyboard	2					1	1	1		BlockProc	List2	2								1	1	2							ColorProc	List3											3	BUTTON1.png	BUTTON2.PNG	BUTTON3.png	BUTTON4.png	bluetriangle3.png	3	1	3				{button4}	0							0	TrialProc	ColorList							0	{button4}	Button	10	33	101040	0	{Button3}	1444	102484	Color
Wisconsin	1168	3	<?xml version="1.0"?>\n<Clock xmlns:dt="urn:schemas-microsoft-com:datatypes"><Description dt:dt="string">E-Prime Primary Realtime Clock</Description><StartTime><Timestamp dt:dt="int">0</Timestamp><DateUtc dt:dt="string">2022-11-26T09:50:46Z</DateUtc></StartTime><FrequencyChanges><FrequencyChange><Frequency dt:dt="r8">10000000</Frequency><Timestamp dt:dt="r8">1733145470703</Timestamp><Current dt:dt="r8">0</Current><DateUtc dt:dt="string">2022-11-26T09:50:46Z</DateUtc></FrequencyChange></FrequencyChanges></Clock>\n	Wisconsin-1168-3	60.015	1.0.0.243	1	-2018261085	Full	3.0.3.80	3.0.3.80	11-26-2022	11/26/2022 9:50:47 AM	17:50:47	Keyboard	Keyboard	Keyboard	3.0.3.82	Keyboard	2					1	1	1		BlockProc	List2	2								1	1	2							ColorProc	List3											4	BUTTON1.png	BUTTON2.PNG	BUTTON3.png	BUTTON4.png	bluecross2.png	2	1	4				{button4}	0							0	TrialProc	ColorList							1	{button4}	Button	9	33	105056	0	{Button4}	2060	107116	Color
Wisconsin	1168	3	<?xml version="1.0"?>\n<Clock xmlns:dt="urn:schemas-microsoft-com:datatypes"><Description dt:dt="string">E-Prime Primary Realtime Clock</Description><StartTime><Timestamp dt:dt="int">0</Timestamp><DateUtc dt:dt="string">2022-11-26T09:50:46Z</DateUtc></StartTime><FrequencyChanges><FrequencyChange><Frequency dt:dt="r8">10000000</Frequency><Timestamp dt:dt="r8">1733145470703</Timestamp><Current dt:dt="r8">0</Current><DateUtc dt:dt="string">2022-11-26T09:50:46Z</DateUtc></FrequencyChange></FrequencyChanges></Clock>\n	Wisconsin-1168-3	60.015	1.0.0.243	1	-2018261085	Full	3.0.3.80	3.0.3.80	11-26-2022	11/26/2022 9:50:47 AM	17:50:47	Keyboard	Keyboard	Keyboard	3.0.3.82	Keyboard	2					1	1	1		BlockProc	List2	2								1	1	2							ColorProc	List3											5	BUTTON1.png	BUTTON2.PNG	BUTTON3.png	BUTTON4.png	greentriangle3.png	7	1	5				{button1}	0							0	TrialProc	ColorList							1	{button1}	Button	10	33	109688	0	{Button1}	1076	110764	Color
Wisconsin	1168	3	<?xml version="1.0"?>\n<Clock xmlns:dt="urn:schemas-microsoft-com:datatypes"><Description dt:dt="string">E-Prime Primary Realtime Clock</Description><StartTime><Timestamp dt:dt="int">0</Timestamp><DateUtc dt:dt="string">2022-11-26T09:50:46Z</DateUtc></StartTime><FrequencyChanges><FrequencyChange><Frequency dt:dt="r8">10000000</Frequency><Timestamp dt:dt="r8">1733145470703</Timestamp><Current dt:dt="r8">0</Current><DateUtc dt:dt="string">2022-11-26T09:50:46Z</DateUtc></FrequencyChange></FrequencyChanges></Clock>\n	Wisconsin-1168-3	60.015	1.0.0.243	1	-2018261085	Full	3.0.3.80	3.0.3.80	11-26-2022	11/26/2022 9:50:47 AM	17:50:47	Keyboard	Keyboard	Keyboard	3.0.3.82	Keyboard	2					1	1	1		BlockProc	List2	2								1	1	2							ColorProc	List3											6	BUTTON1.png	BUTTON2.PNG	BUTTON3.png	BUTTON4.png	greencircle3.png	4	1	6				{button1}	0							0	TrialProc	ColorList							1	{button1}	Button	10	33	113337	0	{Button1}	979	114316	Color
Wisconsin	1168	3	<?xml version="1.0"?>\n<Clock xmlns:dt="urn:schemas-microsoft-com:datatypes"><Description dt:dt="string">E-Prime Primary Realtime Clock</Description><StartTime><Timestamp dt:dt="int">0</Timestamp><DateUtc dt:dt="string">2022-11-26T09:50:46Z</DateUtc></StartTime><FrequencyChanges><FrequencyChange><Frequency dt:dt="r8">10000000</Frequency><Timestamp dt:dt="r8">1733145470703</Timestamp><Current dt:dt="r8">0</Current><DateUtc dt:dt="string">2022-11-26T09:50:46Z</DateUtc></FrequencyChange></FrequencyChanges></Clock>\n	Wisconsin-1168-3	60.015	1.0.0.243	1	-2018261085	Full	3.0.3.80	3.0.3.80	11-26-2022	11/26/2022 9:50:47 AM	17:50:47	Keyboard	Keyboard	Keyboard	3.0.3.82	Keyboard	2					1	1	1		BlockProc	List2	2								1	1	2							ColorProc	List3											7	BUTTON1.png	BUTTON2.PNG	BUTTON3.png	BUTTON4.png	yellowcircle1.png	9	1	7				{button2}	0							0	TrialProc	ColorList							1	{button2}	Button	1	33	116903	0	{Button2}	829	117732	Color
Wisconsin	1168	3	<?xml version="1.0"?>\n<Clock xmlns:dt="urn:schemas-microsoft-com:datatypes"><Description dt:dt="string">E-Prime Primary Realtime Clock</Description><StartTime><Timestamp dt:dt="int">0</Timestamp><DateUtc dt:dt="string">2022-11-26T09:50:46Z</DateUtc></StartTime><FrequencyChanges><FrequencyChange><Frequency dt:dt="r8">10000000</Frequency><Timestamp dt:dt="r8">1733145470703</Timestamp><Current dt:dt="r8">0</Current><DateUtc dt:dt="string">2022-11-26T09:50:46Z</DateUtc></FrequencyChange></FrequencyChanges></Clock>\n	Wisconsin-1168-3	60.015	1.0.0.243	1	-2018261085	Full	3.0.3.80	3.0.3.80	11-26-2022	11/26/2022 9:50:47 AM	17:50:47	Keyboard	Keyboard	Keyboard	3.0.3.82	Keyboard	2					1	1	1		BlockProc	List2	2								1	1	2							ColorProc	List3											8	BUTTON1.png	BUTTON2.PNG	BUTTON3.png	BUTTON4.png	yellowstar3.png	10	1	8				{button2}	0							0	TrialProc	ColorList							1	{button2}	Button	10	33	120319	0	{Button2}	981	121300	Color
Wisconsin	1168	3	<?xml version="1.0"?>\n<Clock xmlns:dt="urn:schemas-microsoft-com:datatypes"><Description dt:dt="string">E-Prime Primary Realtime Clock</Description><StartTime><Timestamp dt:dt="int">0</Timestamp><DateUtc dt:dt="string">2022-11-26T09:50:46Z</DateUtc></StartTime><FrequencyChanges><FrequencyChange><Frequency dt:dt="r8">10000000</Frequency><Timestamp dt:dt="r8">1733145470703</Timestamp><Current dt:dt="r8">0</Current><DateUtc dt:dt="string">2022-11-26T09:50:46Z</DateUtc></FrequencyChange></FrequencyChanges></Clock>\n	Wisconsin-1168-3	60.015	1.0.0.243	1	-2018261085	Full	3.0.3.80	3.0.3.80	11-26-2022	11/26/2022 9:50:47 AM	17:50:47	Keyboard	Keyboard	Keyboard	3.0.3.82	Keyboard	2					1	1	1		BlockProc	List2	2								1	1	2							ColorProc	List3											9	BUTTON1.png	BUTTON2.PNG	BUTTON3.png	BUTTON4.png	bluecircle1.png	1	1	9				{button4}	0							0	TrialProc	ColorList							1	{button4}	Button	10	33	123884	0	{Button4}	1376	125260	Color
Wisconsin	1168	3	<?xml version="1.0"?>\n<Clock xmlns:dt="urn:schemas-microsoft-com:datatypes"><Description dt:dt="string">E-Prime Primary Realtime Clock</Description><StartTime><Timestamp dt:dt="int">0</Timestamp><DateUtc dt:dt="string">2022-11-26T09:50:46Z</DateUtc></StartTime><FrequencyChanges><FrequencyChange><Frequency dt:dt="r8">10000000</Frequency><Timestamp dt:dt="r8">1733145470703</Timestamp><Current dt:dt="r8">0</Current><DateUtc dt:dt="string">2022-11-26T09:50:46Z</DateUtc></FrequencyChange></FrequencyChanges></Clock>\n	Wisconsin-1168-3	60.015	1.0.0.243	1	-2018261085	Full	3.0.3.80	3.0.3.80	11-26-2022	11/26/2022 9:50:47 AM	17:50:47	Keyboard	Keyboard	Keyboard	3.0.3.82	Keyboard	2					1	1	1		BlockProc	List2	2								1	1	2							ColorProc	List3											10	BUTTON1.png	BUTTON2.PNG	BUTTON3.png	BUTTON4.png	greentriangle1.png	6	1	10				{button1}	0							0	TrialProc	ColorList							1	{button1}	Button	10	50	127850	0	{Button1}	954	128804	Color
Wisconsin	1168	3	<?xml version="1.0"?>\n<Clock xmlns:dt="urn:schemas-microsoft-com:datatypes"><Description dt:dt="string">E-Prime Primary Realtime Clock</Description><StartTime><Timestamp dt:dt="int">0</Timestamp><DateUtc dt:dt="string">2022-11-26T09:50:46Z</DateUtc></StartTime><FrequencyChanges><FrequencyChange><Frequency dt:dt="r8">10000000</Frequency><Timestamp dt:dt="r8">1733145470703</Timestamp><Current dt:dt="r8">0</Current><DateUtc dt:dt="string">2022-11-26T09:50:46Z</DateUtc></FrequencyChange></FrequencyChanges></Clock>\n	Wisconsin-1168-3	60.015	1.0.0.243	1	-2018261085	Full	3.0.3.80	3.0.3.80	11-26-2022	11/26/2022 9:50:47 AM	17:50:47	Keyboard	Keyboard	Keyboard	3.0.3.82	Keyboard	2					1	1	1		BlockProc	List2	3								2	1	3							ShapeProc	List3											1	Button1.png	Button2.png	Button3.png	Button4.png	Bluecross4.png							{Button3}	0							0	TrialProc	ShapeList	2	1	1				0	{Button3}	Button	10	49	131399	0	{Button4}	2717	134116	Shape
Wisconsin	1168	3	<?xml version="1.0"?>\n<Clock xmlns:dt="urn:schemas-microsoft-com:datatypes"><Description dt:dt="string">E-Prime Primary Realtime Clock</Description><StartTime><Timestamp dt:dt="int">0</Timestamp><DateUtc dt:dt="string">2022-11-26T09:50:46Z</DateUtc></StartTime><FrequencyChanges><FrequencyChange><Frequency dt:dt="r8">10000000</Frequency><Timestamp dt:dt="r8">1733145470703</Timestamp><Current dt:dt="r8">0</Current><DateUtc dt:dt="string">2022-11-26T09:50:46Z</DateUtc></FrequencyChange></FrequencyChanges></Clock>\n	Wisconsin-1168-3	60.015	1.0.0.243	1	-2018261085	Full	3.0.3.80	3.0.3.80	11-26-2022	11/26/2022 9:50:47 AM	17:50:47	Keyboard	Keyboard	Keyboard	3.0.3.82	Keyboard	2					1	1	1		BlockProc	List2	3								2	1	3							ShapeProc	List3											2	Button1.png	Button2.png	Button3.png	Button4.png	Redcross1.png							{Button3}	0							0	TrialProc	ShapeList	5	1	2				1	{Button3}	Button	2	33	136698	0	{Button3}	1002	137700	Shape
Wisconsin	1168	3	<?xml version="1.0"?>\n<Clock xmlns:dt="urn:schemas-microsoft-com:datatypes"><Description dt:dt="string">E-Prime Primary Realtime Clock</Description><StartTime><Timestamp dt:dt="int">0</Timestamp><DateUtc dt:dt="string">2022-11-26T09:50:46Z</DateUtc></StartTime><FrequencyChanges><FrequencyChange><Frequency dt:dt="r8">10000000</Frequency><Timestamp dt:dt="r8">1733145470703</Timestamp><Current dt:dt="r8">0</Current><DateUtc dt:dt="string">2022-11-26T09:50:46Z</DateUtc></FrequencyChange></FrequencyChanges></Clock>\n	Wisconsin-1168-3	60.015	1.0.0.243	1	-2018261085	Full	3.0.3.80	3.0.3.80	11-26-2022	11/26/2022 9:50:47 AM	17:50:47	Keyboard	Keyboard	Keyboard	3.0.3.82	Keyboard	2					1	1	1		BlockProc	List2	3								2	1	3							ShapeProc	List3											3	Button1.png	Button2.png	Button3.png	Button4.png	Redcross4.png							{Button3}	0							0	TrialProc	ShapeList	6	1	3				1	{Button3}	Button	2	33	140280	0	{Button3}	1180	141460	Shape
Wisconsin	1168	3	<?xml version="1.0"?>\n<Clock xmlns:dt="urn:schemas-microsoft-com:datatypes"><Description dt:dt="string">E-Prime Primary Realtime Clock</Description><StartTime><Timestamp dt:dt="int">0</Timestamp><DateUtc dt:dt="string">2022-11-26T09:50:46Z</DateUtc></StartTime><FrequencyChanges><FrequencyChange><Frequency dt:dt="r8">10000000</Frequency><Timestamp dt:dt="r8">1733145470703</Timestamp><Current dt:dt="r8">0</Current><DateUtc dt:dt="string">2022-11-26T09:50:46Z</DateUtc></FrequencyChange></FrequencyChanges></Clock>\n	Wisconsin-1168-3	60.015	1.0.0.243	1	-2018261085	Full	3.0.3.80	3.0.3.80	11-26-2022	11/26/2022 9:50:47 AM	17:50:47	Keyboard	Keyboard	Keyboard	3.0.3.82	Keyboard	2					1	1	1		BlockProc	List2	3								2	1	3							ShapeProc	List3											4	Button1.png	Button2.png	Button3.png	Button4.png	Greentriangle4.png							{Button2}	0							0	TrialProc	ShapeList	4	1	4				1	{Button2}	Button	10	33	144046	0	{Button2}	1214	145260	Shape
Wisconsin	1168	3	<?xml version="1.0"?>\n<Clock xmlns:dt="urn:schemas-microsoft-com:datatypes"><Description dt:dt="string">E-Prime Primary Realtime Clock</Description><StartTime><Timestamp dt:dt="int">0</Timestamp><DateUtc dt:dt="string">2022-11-26T09:50:46Z</DateUtc></StartTime><FrequencyChanges><FrequencyChange><Frequency dt:dt="r8">10000000</Frequency><Timestamp dt:dt="r8">1733145470703</Timestamp><Current dt:dt="r8">0</Current><DateUtc dt:dt="string">2022-11-26T09:50:46Z</DateUtc></FrequencyChange></FrequencyChanges></Clock>\n	Wisconsin-1168-3	60.015	1.0.0.243	1	-2018261085	Full	3.0.3.80	3.0.3.80	11-26-2022	11/26/2022 9:50:47 AM	17:50:47	Keyboard	Keyboard	Keyboard	3.0.3.82	Keyboard	2					1	1	1		BlockProc	List2	3								2	1	3							ShapeProc	List3											5	Button1.png	Button2.png	Button3.png	Button4.png	Redtriangle1.png							{Button2}	0							0	TrialProc	ShapeList	7	1	5				1	{Button2}	Button	10	33	147845	0	{Button2}	1159	149004	Shape
Wisconsin	1168	3	<?xml version="1.0"?>\n<Clock xmlns:dt="urn:schemas-microsoft-com:datatypes"><Description dt:dt="string">E-Prime Primary Realtime Clock</Description><StartTime><Timestamp dt:dt="int">0</Timestamp><DateUtc dt:dt="string">2022-11-26T09:50:46Z</DateUtc></StartTime><FrequencyChanges><FrequencyChange><Frequency dt:dt="r8">10000000</Frequency><Timestamp dt:dt="r8">1733145470703</Timestamp><Current dt:dt="r8">0</Current><DateUtc dt:dt="string">2022-11-26T09:50:46Z</DateUtc></FrequencyChange></FrequencyChanges></Clock>\n	Wisconsin-1168-3	60.015	1.0.0.243	1	-2018261085	Full	3.0.3.80	3.0.3.80	11-26-2022	11/26/2022 9:50:47 AM	17:50:47	Keyboard	Keyboard	Keyboard	3.0.3.82	Keyboard	2					1	1	1		BlockProc	List2	3								2	1	3							ShapeProc	List3											6	Button1.png	Button2.png	Button3.png	Button4.png	Bluecircle2.png							{Button1}	0							0	TrialProc	ShapeList	1	1	6				1	{Button1}	Button	9	33	151578	0	{Button1}	1098	152676	Shape
Wisconsin	1168	3	<?xml version="1.0"?>\n<Clock xmlns:dt="urn:schemas-microsoft-com:datatypes"><Description dt:dt="string">E-Prime Primary Realtime Clock</Description><StartTime><Timestamp dt:dt="int">0</Timestamp><DateUtc dt:dt="string">2022-11-26T09:50:46Z</DateUtc></StartTime><FrequencyChanges><FrequencyChange><Frequency dt:dt="r8">10000000</Frequency><Timestamp dt:dt="r8">1733145470703</Timestamp><Current dt:dt="r8">0</Current><DateUtc dt:dt="string">2022-11-26T09:50:46Z</DateUtc></FrequencyChange></FrequencyChanges></Clock>\n	Wisconsin-1168-3	60.015	1.0.0.243	1	-2018261085	Full	3.0.3.80	3.0.3.80	11-26-2022	11/26/2022 9:50:47 AM	17:50:47	Keyboard	Keyboard	Keyboard	3.0.3.82	Keyboard	2					1	1	1		BlockProc	List2	3								2	1	3							ShapeProc	List3											7	Button1.png	Button2.png	Button3.png	Button4.png	Yellowstar1.png							{Button4}	0							0	TrialProc	ShapeList	9	1	7				0	{Button4}	Button	10	33	155260	0	{Button2}	952	156212	Shape
Wisconsin	1168	3	<?xml version="1.0"?>\n<Clock xmlns:dt="urn:schemas-microsoft-com:datatypes"><Description dt:dt="string">E-Prime Primary Realtime Clock</Description><StartTime><Timestamp dt:dt="int">0</Timestamp><DateUtc dt:dt="string">2022-11-26T09:50:46Z</DateUtc></StartTime><FrequencyChanges><FrequencyChange><Frequency dt:dt="r8">10000000</Frequency><Timestamp dt:dt="r8">1733145470703</Timestamp><Current dt:dt="r8">0</Current><DateUtc dt:dt="string">2022-11-26T09:50:46Z</DateUtc></FrequencyChange></FrequencyChanges></Clock>\n	Wisconsin-1168-3	60.015	1.0.0.243	1	-2018261085	Full	3.0.3.80	3.0.3.80	11-26-2022	11/26/2022 9:50:47 AM	17:50:47	Keyboard	Keyboard	Keyboard	3.0.3.82	Keyboard	2					1	1	1		BlockProc	List2	3								2	1	3							ShapeProc	List3											8	Button1.png	Button2.png	Button3.png	Button4.png	yellowcircle3.png							{Button1}	0							0	TrialProc	ShapeList	8	1	8				1	{Button1}	Button	10	33	158793	0	{Button1}	1043	159836	Shape
Wisconsin	1168	3	<?xml version="1.0"?>\n<Clock xmlns:dt="urn:schemas-microsoft-com:datatypes"><Description dt:dt="string">E-Prime Primary Realtime Clock</Description><StartTime><Timestamp dt:dt="int">0</Timestamp><DateUtc dt:dt="string">2022-11-26T09:50:46Z</DateUtc></StartTime><FrequencyChanges><FrequencyChange><Frequency dt:dt="r8">10000000</Frequency><Timestamp dt:dt="r8">1733145470703</Timestamp><Current dt:dt="r8">0</Current><DateUtc dt:dt="string">2022-11-26T09:50:46Z</DateUtc></FrequencyChange></FrequencyChanges></Clock>\n	Wisconsin-1168-3	60.015	1.0.0.243	1	-2018261085	Full	3.0.3.80	3.0.3.80	11-26-2022	11/26/2022 9:50:47 AM	17:50:47	Keyboard	Keyboard	Keyboard	3.0.3.82	Keyboard	2					1	1	1		BlockProc	List2	3								2	1	3							ShapeProc	List3											9	Button1.png	Button2.png	Button3.png	Button4.png	Greencross1.png							{Button3}	0							0	TrialProc	ShapeList	3	1	9				1	{Button3}	Button	12	50	162442	0	{Button3}	3322	165764	Shape
Wisconsin	1168	3	<?xml version="1.0"?>\n<Clock xmlns:dt="urn:schemas-microsoft-com:datatypes"><Description dt:dt="string">E-Prime Primary Realtime Clock</Description><StartTime><Timestamp dt:dt="int">0</Timestamp><DateUtc dt:dt="string">2022-11-26T09:50:46Z</DateUtc></StartTime><FrequencyChanges><FrequencyChange><Frequency dt:dt="r8">10000000</Frequency><Timestamp dt:dt="r8">1733145470703</Timestamp><Current dt:dt="r8">0</Current><DateUtc dt:dt="string">2022-11-26T09:50:46Z</DateUtc></FrequencyChange></FrequencyChanges></Clock>\n	Wisconsin-1168-3	60.015	1.0.0.243	1	-2018261085	Full	3.0.3.80	3.0.3.80	11-26-2022	11/26/2022 9:50:47 AM	17:50:47	Keyboard	Keyboard	Keyboard	3.0.3.82	Keyboard	2					1	1	1		BlockProc	List2	3								2	1	3							ShapeProc	List3											10	Button1.png	Button2.png	Button3.png	Button4.png	Yellowstar4.png							{Button4}	0							0	TrialProc	ShapeList	10	1	10				1	{Button4}	Button	11	33	168340	0	{Button4}	2136	170476	Shape
Wisconsin	1168	3	<?xml version="1.0"?>\n<Clock xmlns:dt="urn:schemas-microsoft-com:datatypes"><Description dt:dt="string">E-Prime Primary Realtime Clock</Description><StartTime><Timestamp dt:dt="int">0</Timestamp><DateUtc dt:dt="string">2022-11-26T09:50:46Z</DateUtc></StartTime><FrequencyChanges><FrequencyChange><Frequency dt:dt="r8">10000000</Frequency><Timestamp dt:dt="r8">1733145470703</Timestamp><Current dt:dt="r8">0</Current><DateUtc dt:dt="string">2022-11-26T09:50:46Z</DateUtc></FrequencyChange></FrequencyChanges></Clock>\n	Wisconsin-1168-3	60.015	1.0.0.243	1	-2018261085	Full	3.0.3.80	3.0.3.80	11-26-2022	11/26/2022 9:50:47 AM	17:50:47	Keyboard	Keyboard	Keyboard	3.0.3.82	Keyboard	3					2	1	2		BlockProc2	List2	1											3	1	1				NumberProc2	List4											1	Button1.png	Button2.png	Button3.png	Button4.png	Bluecross3.png							{button3}	0				1	1	1	0	TrialProc	NumberList2							1	{button3}	Button	9	33	173056	0	{Button3}	1852	174908	number
Wisconsin	1168	3	<?xml version="1.0"?>\n<Clock xmlns:dt="urn:schemas-microsoft-com:datatypes"><Description dt:dt="string">E-Prime Primary Realtime Clock</Description><StartTime><Timestamp dt:dt="int">0</Timestamp><DateUtc dt:dt="string">2022-11-26T09:50:46Z</DateUtc></StartTime><FrequencyChanges><FrequencyChange><Frequency dt:dt="r8">10000000</Frequency><Timestamp dt:dt="r8">1733145470703</Timestamp><Current dt:dt="r8">0</Current><DateUtc dt:dt="string">2022-11-26T09:50:46Z</DateUtc></FrequencyChange></FrequencyChanges></Clock>\n	Wisconsin-1168-3	60.015	1.0.0.243	1	-2018261085	Full	3.0.3.80	3.0.3.80	11-26-2022	11/26/2022 9:50:47 AM	17:50:47	Keyboard	Keyboard	Keyboard	3.0.3.82	Keyboard	3					2	1	2		BlockProc2	List2	1											3	1	1				NumberProc2	List4											2	Button1.png	Button2.png	Button3.png	Button4.png	Bluestar4.png							{button2}	0				2	1	2	0	TrialProc	NumberList2							0	{button2}	Button	2	50	177505	0	{Button4}	1643	179148	number
Wisconsin	1168	3	<?xml version="1.0"?>\n<Clock xmlns:dt="urn:schemas-microsoft-com:datatypes"><Description dt:dt="string">E-Prime Primary Realtime Clock</Description><StartTime><Timestamp dt:dt="int">0</Timestamp><DateUtc dt:dt="string">2022-11-26T09:50:46Z</DateUtc></StartTime><FrequencyChanges><FrequencyChange><Frequency dt:dt="r8">10000000</Frequency><Timestamp dt:dt="r8">1733145470703</Timestamp><Current dt:dt="r8">0</Current><DateUtc dt:dt="string">2022-11-26T09:50:46Z</DateUtc></FrequencyChange></FrequencyChanges></Clock>\n	Wisconsin-1168-3	60.015	1.0.0.243	1	-2018261085	Full	3.0.3.80	3.0.3.80	11-26-2022	11/26/2022 9:50:47 AM	17:50:47	Keyboard	Keyboard	Keyboard	3.0.3.82	Keyboard	3					2	1	2		BlockProc2	List2	1											3	1	1				NumberProc2	List4											3	Button1.png	Button2.png	Button3.png	Button4.png	Bluetriangle4.png							{button2}	0				3	1	3	0	TrialProc	NumberList2							1	{button2}	Button	3	50	181737	0	{Button2}	2315	184052	number
Wisconsin	1168	3	<?xml version="1.0"?>\n<Clock xmlns:dt="urn:schemas-microsoft-com:datatypes"><Description dt:dt="string">E-Prime Primary Realtime Clock</Description><StartTime><Timestamp dt:dt="int">0</Timestamp><DateUtc dt:dt="string">2022-11-26T09:50:46Z</DateUtc></StartTime><FrequencyChanges><FrequencyChange><Frequency dt:dt="r8">10000000</Frequency><Timestamp dt:dt="r8">1733145470703</Timestamp><Current dt:dt="r8">0</Current><DateUtc dt:dt="string">2022-11-26T09:50:46Z</DateUtc></FrequencyChange></FrequencyChanges></Clock>\n	Wisconsin-1168-3	60.015	1.0.0.243	1	-2018261085	Full	3.0.3.80	3.0.3.80	11-26-2022	11/26/2022 9:50:47 AM	17:50:47	Keyboard	Keyboard	Keyboard	3.0.3.82	Keyboard	3					2	1	2		BlockProc2	List2	1											3	1	1				NumberProc2	List4											4	Button1.png	Button2.png	Button3.png	Button4.png	Greencross2.png							{button1}	0				4	1	4	0	TrialProc	NumberList2							1	{button1}	Button	1	33	186636	0	{Button1}	944	187580	number
Wisconsin	1168	3	<?xml version="1.0"?>\n<Clock xmlns:dt="urn:schemas-microsoft-com:datatypes"><Description dt:dt="string">E-Prime Primary Realtime Clock</Description><StartTime><Timestamp dt:dt="int">0</Timestamp><DateUtc dt:dt="string">2022-11-26T09:50:46Z</DateUtc></StartTime><FrequencyChanges><FrequencyChange><Frequency dt:dt="r8">10000000</Frequency><Timestamp dt:dt="r8">1733145470703</Timestamp><Current dt:dt="r8">0</Current><DateUtc dt:dt="string">2022-11-26T09:50:46Z</DateUtc></FrequencyChange></FrequencyChanges></Clock>\n	Wisconsin-1168-3	60.015	1.0.0.243	1	-2018261085	Full	3.0.3.80	3.0.3.80	11-26-2022	11/26/2022 9:50:47 AM	17:50:47	Keyboard	Keyboard	Keyboard	3.0.3.82	Keyboard	3					2	1	2		BlockProc2	List2	1											3	1	1				NumberProc2	List4											5	Button1.png	Button2.png	Button3.png	Button4.png	Greenstar1.png							{button4}	0				5	1	5	0	TrialProc	NumberList2							1	{button4}	Button	2	33	190168	0	{Button4}	1180	191348	number
Wisconsin	1168	3	<?xml version="1.0"?>\n<Clock xmlns:dt="urn:schemas-microsoft-com:datatypes"><Description dt:dt="string">E-Prime Primary Realtime Clock</Description><StartTime><Timestamp dt:dt="int">0</Timestamp><DateUtc dt:dt="string">2022-11-26T09:50:46Z</DateUtc></StartTime><FrequencyChanges><FrequencyChange><Frequency dt:dt="r8">10000000</Frequency><Timestamp dt:dt="r8">1733145470703</Timestamp><Current dt:dt="r8">0</Current><DateUtc dt:dt="string">2022-11-26T09:50:46Z</DateUtc></FrequencyChange></FrequencyChanges></Clock>\n	Wisconsin-1168-3	60.015	1.0.0.243	1	-2018261085	Full	3.0.3.80	3.0.3.80	11-26-2022	11/26/2022 9:50:47 AM	17:50:47	Keyboard	Keyboard	Keyboard	3.0.3.82	Keyboard	3					2	1	2		BlockProc2	List2	1											3	1	1				NumberProc2	List4											6	Button1.png	Button2.png	Button3.png	Button4.png	Redstar1.png							{button4}	0				6	1	6	0	TrialProc	NumberList2							1	{button4}	Button	2	33	193934	0	{Button4}	998	194932	number
Wisconsin	1168	3	<?xml version="1.0"?>\n<Clock xmlns:dt="urn:schemas-microsoft-com:datatypes"><Description dt:dt="string">E-Prime Primary Realtime Clock</Description><StartTime><Timestamp dt:dt="int">0</Timestamp><DateUtc dt:dt="string">2022-11-26T09:50:46Z</DateUtc></StartTime><FrequencyChanges><FrequencyChange><Frequency dt:dt="r8">10000000</Frequency><Timestamp dt:dt="r8">1733145470703</Timestamp><Current dt:dt="r8">0</Current><DateUtc dt:dt="string">2022-11-26T09:50:46Z</DateUtc></FrequencyChange></FrequencyChanges></Clock>\n	Wisconsin-1168-3	60.015	1.0.0.243	1	-2018261085	Full	3.0.3.80	3.0.3.80	11-26-2022	11/26/2022 9:50:47 AM	17:50:47	Keyboard	Keyboard	Keyboard	3.0.3.82	Keyboard	3					2	1	2		BlockProc2	List2	1											3	1	1				NumberProc2	List4											7	Button1.png	Button2.png	Button3.png	Button4.png	Redtriangle2.png							{button1}	0				7	1	7	0	TrialProc	NumberList2							1	{button1}	Button	2	50	197533	0	{Button1}	1847	199380	number
Wisconsin	1168	3	<?xml version="1.0"?>\n<Clock xmlns:dt="urn:schemas-microsoft-com:datatypes"><Description dt:dt="string">E-Prime Primary Realtime Clock</Description><StartTime><Timestamp dt:dt="int">0</Timestamp><DateUtc dt:dt="string">2022-11-26T09:50:46Z</DateUtc></StartTime><FrequencyChanges><FrequencyChange><Frequency dt:dt="r8">10000000</Frequency><Timestamp dt:dt="r8">1733145470703</Timestamp><Current dt:dt="r8">0</Current><DateUtc dt:dt="string">2022-11-26T09:50:46Z</DateUtc></FrequencyChange></FrequencyChanges></Clock>\n	Wisconsin-1168-3	60.015	1.0.0.243	1	-2018261085	Full	3.0.3.80	3.0.3.80	11-26-2022	11/26/2022 9:50:47 AM	17:50:47	Keyboard	Keyboard	Keyboard	3.0.3.82	Keyboard	3					2	1	2		BlockProc2	List2	1											3	1	1				NumberProc2	List4											8	Button1.png	Button2.png	Button3.png	Button4.png	yellowcircle4.png							{button2}	0				8	1	8	0	TrialProc	NumberList2							1	{button2}	Button	10	33	201965	0	{Button2}	1719	203684	number
Wisconsin	1168	3	<?xml version="1.0"?>\n<Clock xmlns:dt="urn:schemas-microsoft-com:datatypes"><Description dt:dt="string">E-Prime Primary Realtime Clock</Description><StartTime><Timestamp dt:dt="int">0</Timestamp><DateUtc dt:dt="string">2022-11-26T09:50:46Z</DateUtc></StartTime><FrequencyChanges><FrequencyChange><Frequency dt:dt="r8">10000000</Frequency><Timestamp dt:dt="r8">1733145470703</Timestamp><Current dt:dt="r8">0</Current><DateUtc dt:dt="string">2022-11-26T09:50:46Z</DateUtc></FrequencyChange></FrequencyChanges></Clock>\n	Wisconsin-1168-3	60.015	1.0.0.243	1	-2018261085	Full	3.0.3.80	3.0.3.80	11-26-2022	11/26/2022 9:50:47 AM	17:50:47	Keyboard	Keyboard	Keyboard	3.0.3.82	Keyboard	3					2	1	2		BlockProc2	List2	1											3	1	1				NumberProc2	List4											9	Button1.png	Button2.png	Button3.png	Button4.png	Yellowcross2.png							{button1}	0				9	1	9	0	TrialProc	NumberList2							1	{button1}	Button	2	33	206264	0	{Button1}	1508	207772	number
Wisconsin	1168	3	<?xml version="1.0"?>\n<Clock xmlns:dt="urn:schemas-microsoft-com:datatypes"><Description dt:dt="string">E-Prime Primary Realtime Clock</Description><StartTime><Timestamp dt:dt="int">0</Timestamp><DateUtc dt:dt="string">2022-11-26T09:50:46Z</DateUtc></StartTime><FrequencyChanges><FrequencyChange><Frequency dt:dt="r8">10000000</Frequency><Timestamp dt:dt="r8">1733145470703</Timestamp><Current dt:dt="r8">0</Current><DateUtc dt:dt="string">2022-11-26T09:50:46Z</DateUtc></FrequencyChange></FrequencyChanges></Clock>\n	Wisconsin-1168-3	60.015	1.0.0.243	1	-2018261085	Full	3.0.3.80	3.0.3.80	11-26-2022	11/26/2022 9:50:47 AM	17:50:47	Keyboard	Keyboard	Keyboard	3.0.3.82	Keyboard	3					2	1	2		BlockProc2	List2	1											3	1	1				NumberProc2	List4											10	Button1.png	Button2.png	Button3.png	Button4.png	Yellowtriangle2.png							{button3}	0				10	1	10	0	TrialProc	NumberList2							0	{button3}	Button	1	33	210347	0	{Button1}	2257	212604	number
Wisconsin	1168	3	<?xml version="1.0"?>\n<Clock xmlns:dt="urn:schemas-microsoft-com:datatypes"><Description dt:dt="string">E-Prime Primary Realtime Clock</Description><StartTime><Timestamp dt:dt="int">0</Timestamp><DateUtc dt:dt="string">2022-11-26T09:50:46Z</DateUtc></StartTime><FrequencyChanges><FrequencyChange><Frequency dt:dt="r8">10000000</Frequency><Timestamp dt:dt="r8">1733145470703</Timestamp><Current dt:dt="r8">0</Current><DateUtc dt:dt="string">2022-11-26T09:50:46Z</DateUtc></FrequencyChange></FrequencyChanges></Clock>\n	Wisconsin-1168-3	60.015	1.0.0.243	1	-2018261085	Full	3.0.3.80	3.0.3.80	11-26-2022	11/26/2022 9:50:47 AM	17:50:47	Keyboard	Keyboard	Keyboard	3.0.3.82	Keyboard	3					2	1	2		BlockProc2	List2	2											2	1	2				ShapeProc2	List4											1	Button1.png	Button2.png	Button3.png	Button4.png	redcircle1.png							{button1}	0							0	TrialProc	ShapeList2				4	1	1	0	{button1}	Button	10	33	215179	0	{Button3}	1113	216292	Shape
Wisconsin	1168	3	<?xml version="1.0"?>\n<Clock xmlns:dt="urn:schemas-microsoft-com:datatypes"><Description dt:dt="string">E-Prime Primary Realtime Clock</Description><StartTime><Timestamp dt:dt="int">0</Timestamp><DateUtc dt:dt="string">2022-11-26T09:50:46Z</DateUtc></StartTime><FrequencyChanges><FrequencyChange><Frequency dt:dt="r8">10000000</Frequency><Timestamp dt:dt="r8">1733145470703</Timestamp><Current dt:dt="r8">0</Current><DateUtc dt:dt="string">2022-11-26T09:50:46Z</DateUtc></FrequencyChange></FrequencyChanges></Clock>\n	Wisconsin-1168-3	60.015	1.0.0.243	1	-2018261085	Full	3.0.3.80	3.0.3.80	11-26-2022	11/26/2022 9:50:47 AM	17:50:47	Keyboard	Keyboard	Keyboard	3.0.3.82	Keyboard	3					2	1	2		BlockProc2	List2	2											2	1	2				ShapeProc2	List4											2	Button1.png	Button2.png	Button3.png	Button4.png	Redcross2.png							{button3}	0							0	TrialProc	ShapeList2				5	1	2	1	{button3}	Button	10	33	218878	0	{Button3}	1558	220436	Shape
Wisconsin	1168	3	<?xml version="1.0"?>\n<Clock xmlns:dt="urn:schemas-microsoft-com:datatypes"><Description dt:dt="string">E-Prime Primary Realtime Clock</Description><StartTime><Timestamp dt:dt="int">0</Timestamp><DateUtc dt:dt="string">2022-11-26T09:50:46Z</DateUtc></StartTime><FrequencyChanges><FrequencyChange><Frequency dt:dt="r8">10000000</Frequency><Timestamp dt:dt="r8">1733145470703</Timestamp><Current dt:dt="r8">0</Current><DateUtc dt:dt="string">2022-11-26T09:50:46Z</DateUtc></FrequencyChange></FrequencyChanges></Clock>\n	Wisconsin-1168-3	60.015	1.0.0.243	1	-2018261085	Full	3.0.3.80	3.0.3.80	11-26-2022	11/26/2022 9:50:47 AM	17:50:47	Keyboard	Keyboard	Keyboard	3.0.3.82	Keyboard	3					2	1	2		BlockProc2	List2	2											2	1	2				ShapeProc2	List4											3	Button1.png	Button2.png	Button3.png	Button4.png	Redtriangle3.png							{button2}	0							0	TrialProc	ShapeList2				7	1	3	1	{button2}	Button	2	33	223010	0	{Button2}	1330	224340	Shape
Wisconsin	1168	3	<?xml version="1.0"?>\n<Clock xmlns:dt="urn:schemas-microsoft-com:datatypes"><Description dt:dt="string">E-Prime Primary Realtime Clock</Description><StartTime><Timestamp dt:dt="int">0</Timestamp><DateUtc dt:dt="string">2022-11-26T09:50:46Z</DateUtc></StartTime><FrequencyChanges><FrequencyChange><Frequency dt:dt="r8">10000000</Frequency><Timestamp dt:dt="r8">1733145470703</Timestamp><Current dt:dt="r8">0</Current><DateUtc dt:dt="string">2022-11-26T09:50:46Z</DateUtc></FrequencyChange></FrequencyChanges></Clock>\n	Wisconsin-1168-3	60.015	1.0.0.243	1	-2018261085	Full	3.0.3.80	3.0.3.80	11-26-2022	11/26/2022 9:50:47 AM	17:50:47	Keyboard	Keyboard	Keyboard	3.0.3.82	Keyboard	3					2	1	2		BlockProc2	List2	2											2	1	2				ShapeProc2	List4											4	Button1.png	Button2.png	Button3.png	Button4.png	yellowcross4.png							{button3}	0							0	TrialProc	ShapeList2				8	1	4	1	{button3}	Button	10	33	226926	0	{Button3}	1582	228508	Shape
Wisconsin	1168	3	<?xml version="1.0"?>\n<Clock xmlns:dt="urn:schemas-microsoft-com:datatypes"><Description dt:dt="string">E-Prime Primary Realtime Clock</Description><StartTime><Timestamp dt:dt="int">0</Timestamp><DateUtc dt:dt="string">2022-11-26T09:50:46Z</DateUtc></StartTime><FrequencyChanges><FrequencyChange><Frequency dt:dt="r8">10000000</Frequency><Timestamp dt:dt="r8">1733145470703</Timestamp><Current dt:dt="r8">0</Current><DateUtc dt:dt="string">2022-11-26T09:50:46Z</DateUtc></FrequencyChange></FrequencyChanges></Clock>\n	Wisconsin-1168-3	60.015	1.0.0.243	1	-2018261085	Full	3.0.3.80	3.0.3.80	11-26-2022	11/26/2022 9:50:47 AM	17:50:47	Keyboard	Keyboard	Keyboard	3.0.3.82	Keyboard	3					2	1	2		BlockProc2	List2	2											2	1	2				ShapeProc2	List4											5	Button1.png	Button2.png	Button3.png	Button4.png	Greenstar3.png							{button4}	0							0	TrialProc	ShapeList2				3	1	5	1	{button4}	Button	9	33	231092	0	{Button4}	2776	233868	Shape
Wisconsin	1168	3	<?xml version="1.0"?>\n<Clock xmlns:dt="urn:schemas-microsoft-com:datatypes"><Description dt:dt="string">E-Prime Primary Realtime Clock</Description><StartTime><Timestamp dt:dt="int">0</Timestamp><DateUtc dt:dt="string">2022-11-26T09:50:46Z</DateUtc></StartTime><FrequencyChanges><FrequencyChange><Frequency dt:dt="r8">10000000</Frequency><Timestamp dt:dt="r8">1733145470703</Timestamp><Current dt:dt="r8">0</Current><DateUtc dt:dt="string">2022-11-26T09:50:46Z</DateUtc></FrequencyChange></FrequencyChanges></Clock>\n	Wisconsin-1168-3	60.015	1.0.0.243	1	-2018261085	Full	3.0.3.80	3.0.3.80	11-26-2022	11/26/2022 9:50:47 AM	17:50:47	Keyboard	Keyboard	Keyboard	3.0.3.82	Keyboard	3					2	1	2		BlockProc2	List2	2											2	1	2				ShapeProc2	List4											6	Button1.png	Button2.png	Button3.png	Button4.png	Bluetriangle2.png							{button2}	0							0	TrialProc	ShapeList2				2	1	6	1	{button2}	Button	10	33	236440	0	{Button2}	1444	237884	Shape
Wisconsin	1168	3	<?xml version="1.0"?>\n<Clock xmlns:dt="urn:schemas-microsoft-com:datatypes"><Description dt:dt="string">E-Prime Primary Realtime Clock</Description><StartTime><Timestamp dt:dt="int">0</Timestamp><DateUtc dt:dt="string">2022-11-26T09:50:46Z</DateUtc></StartTime><FrequencyChanges><FrequencyChange><Frequency dt:dt="r8">10000000</Frequency><Timestamp dt:dt="r8">1733145470703</Timestamp><Current dt:dt="r8">0</Current><DateUtc dt:dt="string">2022-11-26T09:50:46Z</DateUtc></FrequencyChange></FrequencyChanges></Clock>\n	Wisconsin-1168-3	60.015	1.0.0.243	1	-2018261085	Full	3.0.3.80	3.0.3.80	11-26-2022	11/26/2022 9:50:47 AM	17:50:47	Keyboard	Keyboard	Keyboard	3.0.3.82	Keyboard	3					2	1	2		BlockProc2	List2	2											2	1	2				ShapeProc2	List4											7	Button1.png	Button2.png	Button3.png	Button4.png	Redstar3.png							{button4}	0							0	TrialProc	ShapeList2				6	1	7	1	{button4}	Button	10	33	240456	0	{Button4}	1676	242132	Shape
Wisconsin	1168	3	<?xml version="1.0"?>\n<Clock xmlns:dt="urn:schemas-microsoft-com:datatypes"><Description dt:dt="string">E-Prime Primary Realtime Clock</Description><StartTime><Timestamp dt:dt="int">0</Timestamp><DateUtc dt:dt="string">2022-11-26T09:50:46Z</DateUtc></StartTime><FrequencyChanges><FrequencyChange><Frequency dt:dt="r8">10000000</Frequency><Timestamp dt:dt="r8">1733145470703</Timestamp><Current dt:dt="r8">0</Current><DateUtc dt:dt="string">2022-11-26T09:50:46Z</DateUtc></FrequencyChange></FrequencyChanges></Clock>\n	Wisconsin-1168-3	60.015	1.0.0.243	1	-2018261085	Full	3.0.3.80	3.0.3.80	11-26-2022	11/26/2022 9:50:47 AM	17:50:47	Keyboard	Keyboard	Keyboard	3.0.3.82	Keyboard	3					2	1	2		BlockProc2	List2	2											2	1	2				ShapeProc2	List4											8	Button1.png	Button2.png	Button3.png	Button4.png	Yellowtriangle1.png							{button2}	0							0	TrialProc	ShapeList2				10	1	8	1	{button2}	Button	10	33	244705	0	{Button2}	1515	246220	Shape
Wisconsin	1168	3	<?xml version="1.0"?>\n<Clock xmlns:dt="urn:schemas-microsoft-com:datatypes"><Description dt:dt="string">E-Prime Primary Realtime Clock</Description><StartTime><Timestamp dt:dt="int">0</Timestamp><DateUtc dt:dt="string">2022-11-26T09:50:46Z</DateUtc></StartTime><FrequencyChanges><FrequencyChange><Frequency dt:dt="r8">10000000</Frequency><Timestamp dt:dt="r8">1733145470703</Timestamp><Current dt:dt="r8">0</Current><DateUtc dt:dt="string">2022-11-26T09:50:46Z</DateUtc></FrequencyChange></FrequencyChanges></Clock>\n	Wisconsin-1168-3	60.015	1.0.0.243	1	-2018261085	Full	3.0.3.80	3.0.3.80	11-26-2022	11/26/2022 9:50:47 AM	17:50:47	Keyboard	Keyboard	Keyboard	3.0.3.82	Keyboard	3					2	1	2		BlockProc2	List2	2											2	1	2				ShapeProc2	List4											9	Button1.png	Button2.png	Button3.png	Button4.png	Bluecircle3.png							{button1}	0							0	TrialProc	ShapeList2				1	1	9	1	{button1}	Button	2	33	248804	0	{Button1}	1128	249932	Shape
Wisconsin	1168	3	<?xml version="1.0"?>\n<Clock xmlns:dt="urn:schemas-microsoft-com:datatypes"><Description dt:dt="string">E-Prime Primary Realtime Clock</Description><StartTime><Timestamp dt:dt="int">0</Timestamp><DateUtc dt:dt="string">2022-11-26T09:50:46Z</DateUtc></StartTime><FrequencyChanges><FrequencyChange><Frequency dt:dt="r8">10000000</Frequency><Timestamp dt:dt="r8">1733145470703</Timestamp><Current dt:dt="r8">0</Current><DateUtc dt:dt="string">2022-11-26T09:50:46Z</DateUtc></FrequencyChange></FrequencyChanges></Clock>\n	Wisconsin-1168-3	60.015	1.0.0.243	1	-2018261085	Full	3.0.3.80	3.0.3.80	11-26-2022	11/26/2022 9:50:47 AM	17:50:47	Keyboard	Keyboard	Keyboard	3.0.3.82	Keyboard	3					2	1	2		BlockProc2	List2	2											2	1	2				ShapeProc2	List4											10	Button1.png	Button2.png	Button3.png	Button4.png	Yellowstar2.png							{button4}	0							0	TrialProc	ShapeList2				9	1	10	1	{button4}	Button	9	33	252520	0	{Button4}	2140	254660	Shape
Wisconsin	1168	3	<?xml version="1.0"?>\n<Clock xmlns:dt="urn:schemas-microsoft-com:datatypes"><Description dt:dt="string">E-Prime Primary Realtime Clock</Description><StartTime><Timestamp dt:dt="int">0</Timestamp><DateUtc dt:dt="string">2022-11-26T09:50:46Z</DateUtc></StartTime><FrequencyChanges><FrequencyChange><Frequency dt:dt="r8">10000000</Frequency><Timestamp dt:dt="r8">1733145470703</Timestamp><Current dt:dt="r8">0</Current><DateUtc dt:dt="string">2022-11-26T09:50:46Z</DateUtc></FrequencyChange></FrequencyChanges></Clock>\n	Wisconsin-1168-3	60.015	1.0.0.243	1	-2018261085	Full	3.0.3.80	3.0.3.80	11-26-2022	11/26/2022 9:50:47 AM	17:50:47	Keyboard	Keyboard	Keyboard	3.0.3.82	Keyboard	3					2	1	2		BlockProc2	List2	3											1	1	3				ColorProc2	List4											1	BUTTON1.png	BUTTON2.PNG	BUTTON3.png	BUTTON4.png	greenstar4.png				5	1	1	{Button1}	0							0	TrialProc	ColorList2							0	{Button1}	Button	11	33	257235	0	{Button4}	2137	259372	color
Wisconsin	1168	3	<?xml version="1.0"?>\n<Clock xmlns:dt="urn:schemas-microsoft-com:datatypes"><Description dt:dt="string">E-Prime Primary Realtime Clock</Description><StartTime><Timestamp dt:dt="int">0</Timestamp><DateUtc dt:dt="string">2022-11-26T09:50:46Z</DateUtc></StartTime><FrequencyChanges><FrequencyChange><Frequency dt:dt="r8">10000000</Frequency><Timestamp dt:dt="r8">1733145470703</Timestamp><Current dt:dt="r8">0</Current><DateUtc dt:dt="string">2022-11-26T09:50:46Z</DateUtc></FrequencyChange></FrequencyChanges></Clock>\n	Wisconsin-1168-3	60.015	1.0.0.243	1	-2018261085	Full	3.0.3.80	3.0.3.80	11-26-2022	11/26/2022 9:50:47 AM	17:50:47	Keyboard	Keyboard	Keyboard	3.0.3.82	Keyboard	3					2	1	2		BlockProc2	List2	3											1	1	3				ColorProc2	List4											2	BUTTON1.png	BUTTON2.PNG	BUTTON3.png	BUTTON4.png	Redcircle2.png				7	1	2	{Button3}	0							0	TrialProc	ColorList2							0	{Button3}	Button	1	50	261968	0	{Button1}	1220	263188	color
Wisconsin	1168	3	<?xml version="1.0"?>\n<Clock xmlns:dt="urn:schemas-microsoft-com:datatypes"><Description dt:dt="string">E-Prime Primary Realtime Clock</Description><StartTime><Timestamp dt:dt="int">0</Timestamp><DateUtc dt:dt="string">2022-11-26T09:50:46Z</DateUtc></StartTime><FrequencyChanges><FrequencyChange><Frequency dt:dt="r8">10000000</Frequency><Timestamp dt:dt="r8">1733145470703</Timestamp><Current dt:dt="r8">0</Current><DateUtc dt:dt="string">2022-11-26T09:50:46Z</DateUtc></FrequencyChange></FrequencyChanges></Clock>\n	Wisconsin-1168-3	60.015	1.0.0.243	1	-2018261085	Full	3.0.3.80	3.0.3.80	11-26-2022	11/26/2022 9:50:47 AM	17:50:47	Keyboard	Keyboard	Keyboard	3.0.3.82	Keyboard	3					2	1	2		BlockProc2	List2	3											1	1	3				ColorProc2	List4											3	BUTTON1.png	BUTTON2.PNG	BUTTON3.png	BUTTON4.png	Greencircle1.png				3	1	3	{Button1}	0							0	TrialProc	ColorList2							1	{Button1}	Button	1	33	265767	0	{Button1}	1093	266860	color
Wisconsin	1168	3	<?xml version="1.0"?>\n<Clock xmlns:dt="urn:schemas-microsoft-com:datatypes"><Description dt:dt="string">E-Prime Primary Realtime Clock</Description><StartTime><Timestamp dt:dt="int">0</Timestamp><DateUtc dt:dt="string">2022-11-26T09:50:46Z</DateUtc></StartTime><FrequencyChanges><FrequencyChange><Frequency dt:dt="r8">10000000</Frequency><Timestamp dt:dt="r8">1733145470703</Timestamp><Current dt:dt="r8">0</Current><DateUtc dt:dt="string">2022-11-26T09:50:46Z</DateUtc></FrequencyChange></FrequencyChanges></Clock>\n	Wisconsin-1168-3	60.015	1.0.0.243	1	-2018261085	Full	3.0.3.80	3.0.3.80	11-26-2022	11/26/2022 9:50:47 AM	17:50:47	Keyboard	Keyboard	Keyboard	3.0.3.82	Keyboard	3					2	1	2		BlockProc2	List2	3											1	1	3				ColorProc2	List4											4	BUTTON1.png	BUTTON2.PNG	BUTTON3.png	BUTTON4.png	yellowtriangle3.png				10	1	4	{Button2}	0							0	TrialProc	ColorList2							1	{Button2}	Button	2	33	269432	0	{Button2}	1268	270700	color
Wisconsin	1168	3	<?xml version="1.0"?>\n<Clock xmlns:dt="urn:schemas-microsoft-com:datatypes"><Description dt:dt="string">E-Prime Primary Realtime Clock</Description><StartTime><Timestamp dt:dt="int">0</Timestamp><DateUtc dt:dt="string">2022-11-26T09:50:46Z</DateUtc></StartTime><FrequencyChanges><FrequencyChange><Frequency dt:dt="r8">10000000</Frequency><Timestamp dt:dt="r8">1733145470703</Timestamp><Current dt:dt="r8">0</Current><DateUtc dt:dt="string">2022-11-26T09:50:46Z</DateUtc></FrequencyChange></FrequencyChanges></Clock>\n	Wisconsin-1168-3	60.015	1.0.0.243	1	-2018261085	Full	3.0.3.80	3.0.3.80	11-26-2022	11/26/2022 9:50:47 AM	17:50:47	Keyboard	Keyboard	Keyboard	3.0.3.82	Keyboard	3					2	1	2		BlockProc2	List2	3											1	1	3				ColorProc2	List4											5	BUTTON1.png	BUTTON2.PNG	BUTTON3.png	BUTTON4.png	bluecross1.png				1	1	5	{Button4}	0							0	TrialProc	ColorList2							0	{Button4}	Button	2	50	273298	0	{Button3}	1642	274940	color
Wisconsin	1168	3	<?xml version="1.0"?>\n<Clock xmlns:dt="urn:schemas-microsoft-com:datatypes"><Description dt:dt="string">E-Prime Primary Realtime Clock</Description><StartTime><Timestamp dt:dt="int">0</Timestamp><DateUtc dt:dt="string">2022-11-26T09:50:46Z</DateUtc></StartTime><FrequencyChanges><FrequencyChange><Frequency dt:dt="r8">10000000</Frequency><Timestamp dt:dt="r8">1733145470703</Timestamp><Current dt:dt="r8">0</Current><DateUtc dt:dt="string">2022-11-26T09:50:46Z</DateUtc></FrequencyChange></FrequencyChanges></Clock>\n	Wisconsin-1168-3	60.015	1.0.0.243	1	-2018261085	Full	3.0.3.80	3.0.3.80	11-26-2022	11/26/2022 9:50:47 AM	17:50:47	Keyboard	Keyboard	Keyboard	3.0.3.82	Keyboard	3					2	1	2		BlockProc2	List2	3											1	1	3				ColorProc2	List4											6	BUTTON1.png	BUTTON2.PNG	BUTTON3.png	BUTTON4.png	bluestar3.png				2	1	6	{Button4}	0							0	TrialProc	ColorList2							1	{Button4}	Button	1	33	277514	0	{Button4}	1346	278860	color
Wisconsin	1168	3	<?xml version="1.0"?>\n<Clock xmlns:dt="urn:schemas-microsoft-com:datatypes"><Description dt:dt="string">E-Prime Primary Realtime Clock</Description><StartTime><Timestamp dt:dt="int">0</Timestamp><DateUtc dt:dt="string">2022-11-26T09:50:46Z</DateUtc></StartTime><FrequencyChanges><FrequencyChange><Frequency dt:dt="r8">10000000</Frequency><Timestamp dt:dt="r8">1733145470703</Timestamp><Current dt:dt="r8">0</Current><DateUtc dt:dt="string">2022-11-26T09:50:46Z</DateUtc></FrequencyChange></FrequencyChanges></Clock>\n	Wisconsin-1168-3	60.015	1.0.0.243	1	-2018261085	Full	3.0.3.80	3.0.3.80	11-26-2022	11/26/2022 9:50:47 AM	17:50:47	Keyboard	Keyboard	Keyboard	3.0.3.82	Keyboard	3					2	1	2		BlockProc2	List2	3											1	1	3				ColorProc2	List4											7	BUTTON1.png	BUTTON2.PNG	BUTTON3.png	BUTTON4.png	greentriangle2.png				6	1	7	{Button1}	0							0	TrialProc	ColorList2							0	{Button1}	Button	2	33	281446	0	{Button2}	1798	283244	color
Wisconsin	1168	3	<?xml version="1.0"?>\n<Clock xmlns:dt="urn:schemas-microsoft-com:datatypes"><Description dt:dt="string">E-Prime Primary Realtime Clock</Description><StartTime><Timestamp dt:dt="int">0</Timestamp><DateUtc dt:dt="string">2022-11-26T09:50:46Z</DateUtc></StartTime><FrequencyChanges><FrequencyChange><Frequency dt:dt="r8">10000000</Frequency><Timestamp dt:dt="r8">1733145470703</Timestamp><Current dt:dt="r8">0</Current><DateUtc dt:dt="string">2022-11-26T09:50:46Z</DateUtc></FrequencyChange></FrequencyChanges></Clock>\n	Wisconsin-1168-3	60.015	1.0.0.243	1	-2018261085	Full	3.0.3.80	3.0.3.80	11-26-2022	11/26/2022 9:50:47 AM	17:50:47	Keyboard	Keyboard	Keyboard	3.0.3.82	Keyboard	3					2	1	2		BlockProc2	List2	3											1	1	3				ColorProc2	List4											8	BUTTON1.png	BUTTON2.PNG	BUTTON3.png	BUTTON4.png	redstar4.png				8	1	8	{Button3}	0							0	TrialProc	ColorList2							1	{Button3}	Button	10	33	285828	0	{Button3}	2976	288804	color
Wisconsin	1168	3	<?xml version="1.0"?>\n<Clock xmlns:dt="urn:schemas-microsoft-com:datatypes"><Description dt:dt="string">E-Prime Primary Realtime Clock</Description><StartTime><Timestamp dt:dt="int">0</Timestamp><DateUtc dt:dt="string">2022-11-26T09:50:46Z</DateUtc></StartTime><FrequencyChanges><FrequencyChange><Frequency dt:dt="r8">10000000</Frequency><Timestamp dt:dt="r8">1733145470703</Timestamp><Current dt:dt="r8">0</Current><DateUtc dt:dt="string">2022-11-26T09:50:46Z</DateUtc></FrequencyChange></FrequencyChanges></Clock>\n	Wisconsin-1168-3	60.015	1.0.0.243	1	-2018261085	Full	3.0.3.80	3.0.3.80	11-26-2022	11/26/2022 9:50:47 AM	17:50:47	Keyboard	Keyboard	Keyboard	3.0.3.82	Keyboard	3					2	1	2		BlockProc2	List2	3											1	1	3				ColorProc2	List4											9	BUTTON1.png	BUTTON2.PNG	BUTTON3.png	BUTTON4.png	greencross4.png				4	1	9	{Button1}	0							0	TrialProc	ColorList2							1	{Button1}	Button	2	33	291377	0	{Button1}	1171	292548	color
Wisconsin	1168	3	<?xml version="1.0"?>\n<Clock xmlns:dt="urn:schemas-microsoft-com:datatypes"><Description dt:dt="string">E-Prime Primary Realtime Clock</Description><StartTime><Timestamp dt:dt="int">0</Timestamp><DateUtc dt:dt="string">2022-11-26T09:50:46Z</DateUtc></StartTime><FrequencyChanges><FrequencyChange><Frequency dt:dt="r8">10000000</Frequency><Timestamp dt:dt="r8">1733145470703</Timestamp><Current dt:dt="r8">0</Current><DateUtc dt:dt="string">2022-11-26T09:50:46Z</DateUtc></FrequencyChange></FrequencyChanges></Clock>\n	Wisconsin-1168-3	60.015	1.0.0.243	1	-2018261085	Full	3.0.3.80	3.0.3.80	11-26-2022	11/26/2022 9:50:47 AM	17:50:47	Keyboard	Keyboard	Keyboard	3.0.3.82	Keyboard	3					2	1	2		BlockProc2	List2	3											1	1	3				ColorProc2	List4											10	BUTTON1.png	BUTTON2.PNG	BUTTON3.png	BUTTON4.png	yellowcircle2.png				9	1	10	{Button2}	0							0	TrialProc	ColorList2							1	{Button2}	Button	1	50	295143	0	{Button2}	1053	296196	color
