ExperimentName	Subject	Session	Clock.Information	DataFile.Basename	Display.RefreshRate	ExperimentVersion	Group	RandomSeed	RuntimeCapabilities	RuntimeVersion	RuntimeVersionExpected	SessionDate	SessionStartDateTimeUtc	SessionTime	StudioVersion	Block	List1	List1.Cycle	List1.Sample	List3	List3.Cycle	List3.Sample	Procedure[Block]	Running[Block]	Trial	CardIMG1[Trial]	CardIMG2[Trial]	CardIMG3[Trial]	CardIMG4[Trial]	CardStim[Trial]	Category	CorrectAnswer[Trial]	FeedbackDisplay2.ACC	FeedbackDisplay2.CRESP	FeedbackDisplay2.DurationError	FeedbackDisplay2.OnsetDelay	FeedbackDisplay2.OnsetTime	FeedbackDisplay2.OnsetToOnsetTime	FeedbackDisplay2.RESP	FeedbackDisplay2.RT	FeedbackDisplay2.RTTime	List2	List2.Cycle	List2.Sample	List4	List4.Cycle	List4.Sample	PracticeList	PracticeList.Cycle	PracticeList.Sample	Procedure[Trial]	Running[Trial]	Slide5.ACC	Slide5.CRESP	Slide5.DurationError	Slide5.OnsetDelay	Slide5.OnsetTime	Slide5.OnsetToOnsetTime	Slide5.RESP	Slide5.RT	SubTrial	CardIMG1[SubTrial]	CardIMG2[SubTrial]	CardIMG3[SubTrial]	CardIMG4[SubTrial]	CardStim[SubTrial]	ColorList	ColorList.Cycle	ColorList.Sample	ColorList2	ColorList2.Cycle	ColorList2.Sample	CorrectAnswer[SubTrial]	NonPerseverativeError	NumberList	NumberList.Cycle	NumberList.Sample	NumberList1	NumberList1.Cycle	NumberList1.Sample	PerseverativeError	Procedure[SubTrial]	Running[SubTrial]	ShapeList	ShapeList.Cycle	ShapeList.Sample	ShapeList1	ShapeList1.Cycle	ShapeList1.Sample	Stimulus.ACC	Stimulus.CRESP	Stimulus.DurationError	Stimulus.OnsetDelay	Stimulus.OnsetTime	Stimulus.OnsetToOnsetTime	Stimulus.RESP	Stimulus.RT	TrialType
Wisconsin	1175	2	<?xml version="1.0"?>\n<Clock xmlns:dt="urn:schemas-microsoft-com:datatypes"><Description dt:dt="string">E-Prime Primary Realtime Clock</Description><StartTime><Timestamp dt:dt="int">0</Timestamp><DateUtc dt:dt="string">2022-12-19T03:44:44Z</DateUtc></StartTime><FrequencyChanges><FrequencyChange><Frequency dt:dt="r8">2929853</Frequency><Timestamp dt:dt="r8">7031787886</Timestamp><Current dt:dt="r8">0</Current><DateUtc dt:dt="string">2022-12-19T03:44:44Z</DateUtc></FrequencyChange></FrequencyChanges></Clock>\n	Wisconsin-1175-2	59.957	1.0.0.546	1	-1557561557	Professional	2.0.10.356	2.0.10.356	12-19-2022	12/19/2022 3:44:44 AM	11:44:44	2.0.10.252	1	1	1	1				Practicebloc	List1	1	Button1.png	Button2.png	Button3.png	Button4.png	Greencircle3.png	顏色	z	0		0	20	163511	0		0	0							1	1	1	PracticeTrialProc	PracticeList	0	z	0	1	158491	5020		0																																						
Wisconsin	1175	2	<?xml version="1.0"?>\n<Clock xmlns:dt="urn:schemas-microsoft-com:datatypes"><Description dt:dt="string">E-Prime Primary Realtime Clock</Description><StartTime><Timestamp dt:dt="int">0</Timestamp><DateUtc dt:dt="string">2022-12-19T03:44:44Z</DateUtc></StartTime><FrequencyChanges><FrequencyChange><Frequency dt:dt="r8">2929853</Frequency><Timestamp dt:dt="r8">7031787886</Timestamp><Current dt:dt="r8">0</Current><DateUtc dt:dt="string">2022-12-19T03:44:44Z</DateUtc></FrequencyChange></FrequencyChanges></Clock>\n	Wisconsin-1175-2	59.957	1.0.0.546	1	-1557561557	Professional	2.0.10.356	2.0.10.356	12-19-2022	12/19/2022 3:44:44 AM	11:44:44	2.0.10.252	1	1	1	1				Practicebloc	List1	2	Button1.png	Button2.png	Button3.png	Button4.png	Redstar2.png	顏色	c	0		0	20	171083	0		0	0							2	1	2	PracticeTrialProc	PracticeList	0	c	0	1	166063	5020		0																																						
Wisconsin	1175	2	<?xml version="1.0"?>\n<Clock xmlns:dt="urn:schemas-microsoft-com:datatypes"><Description dt:dt="string">E-Prime Primary Realtime Clock</Description><StartTime><Timestamp dt:dt="int">0</Timestamp><DateUtc dt:dt="string">2022-12-19T03:44:44Z</DateUtc></StartTime><FrequencyChanges><FrequencyChange><Frequency dt:dt="r8">2929853</Frequency><Timestamp dt:dt="r8">7031787886</Timestamp><Current dt:dt="r8">0</Current><DateUtc dt:dt="string">2022-12-19T03:44:44Z</DateUtc></FrequencyChange></FrequencyChanges></Clock>\n	Wisconsin-1175-2	59.957	1.0.0.546	1	-1557561557	Professional	2.0.10.356	2.0.10.356	12-19-2022	12/19/2022 3:44:44 AM	11:44:44	2.0.10.252	1	1	1	1				Practicebloc	List1	3	Button1.png	Button2.png	Button3.png	Button4.png	Bluetriangle1.png	形狀	x	0		0	21	178656	0		0	0							3	1	3	PracticeTrialProc	PracticeList	0	x	0	0	173635	5021		0																																						
Wisconsin	1175	2	<?xml version="1.0"?>\n<Clock xmlns:dt="urn:schemas-microsoft-com:datatypes"><Description dt:dt="string">E-Prime Primary Realtime Clock</Description><StartTime><Timestamp dt:dt="int">0</Timestamp><DateUtc dt:dt="string">2022-12-19T03:44:44Z</DateUtc></StartTime><FrequencyChanges><FrequencyChange><Frequency dt:dt="r8">2929853</Frequency><Timestamp dt:dt="r8">7031787886</Timestamp><Current dt:dt="r8">0</Current><DateUtc dt:dt="string">2022-12-19T03:44:44Z</DateUtc></FrequencyChange></FrequencyChanges></Clock>\n	Wisconsin-1175-2	59.957	1.0.0.546	1	-1557561557	Professional	2.0.10.356	2.0.10.356	12-19-2022	12/19/2022 3:44:44 AM	11:44:44	2.0.10.252	1	1	1	1				Practicebloc	List1	4	Button1.png	Button2.png	Button3.png	Button4.png	greenstar2.png	形狀	v	0		0	21	186228	0		0	0							4	1	4	PracticeTrialProc	PracticeList	0	v	1	0	181207	5021		0																																						
Wisconsin	1175	2	<?xml version="1.0"?>\n<Clock xmlns:dt="urn:schemas-microsoft-com:datatypes"><Description dt:dt="string">E-Prime Primary Realtime Clock</Description><StartTime><Timestamp dt:dt="int">0</Timestamp><DateUtc dt:dt="string">2022-12-19T03:44:44Z</DateUtc></StartTime><FrequencyChanges><FrequencyChange><Frequency dt:dt="r8">2929853</Frequency><Timestamp dt:dt="r8">7031787886</Timestamp><Current dt:dt="r8">0</Current><DateUtc dt:dt="string">2022-12-19T03:44:44Z</DateUtc></FrequencyChange></FrequencyChanges></Clock>\n	Wisconsin-1175-2	59.957	1.0.0.546	1	-1557561557	Professional	2.0.10.356	2.0.10.356	12-19-2022	12/19/2022 3:44:44 AM	11:44:44	2.0.10.252	1	1	1	1				Practicebloc	List1	5	Button1.png	Button2.png	Button3.png	Button4.png	BlueCross4.png	數目	x	0		0	16	192482	0		0	0							5	1	5	PracticeTrialProc	PracticeList	0	x	0	1	188780	0	v	3682																																						
Wisconsin	1175	2	<?xml version="1.0"?>\n<Clock xmlns:dt="urn:schemas-microsoft-com:datatypes"><Description dt:dt="string">E-Prime Primary Realtime Clock</Description><StartTime><Timestamp dt:dt="int">0</Timestamp><DateUtc dt:dt="string">2022-12-19T03:44:44Z</DateUtc></StartTime><FrequencyChanges><FrequencyChange><Frequency dt:dt="r8">2929853</Frequency><Timestamp dt:dt="r8">7031787886</Timestamp><Current dt:dt="r8">0</Current><DateUtc dt:dt="string">2022-12-19T03:44:44Z</DateUtc></FrequencyChange></FrequencyChanges></Clock>\n	Wisconsin-1175-2	59.957	1.0.0.546	1	-1557561557	Professional	2.0.10.356	2.0.10.356	12-19-2022	12/19/2022 3:44:44 AM	11:44:44	2.0.10.252	1	1	1	1				Practicebloc	List1	6	Button1.png	Button2.png	Button3.png	Button4.png	yellowcircle2.png	數目	z	0		0	23	198437	0		0	0							6	1	6	PracticeTrialProc	PracticeList	0	z	0	1	195034	0	x	3379																																						
Wisconsin	1175	2	<?xml version="1.0"?>\n<Clock xmlns:dt="urn:schemas-microsoft-com:datatypes"><Description dt:dt="string">E-Prime Primary Realtime Clock</Description><StartTime><Timestamp dt:dt="int">0</Timestamp><DateUtc dt:dt="string">2022-12-19T03:44:44Z</DateUtc></StartTime><FrequencyChanges><FrequencyChange><Frequency dt:dt="r8">2929853</Frequency><Timestamp dt:dt="r8">7031787886</Timestamp><Current dt:dt="r8">0</Current><DateUtc dt:dt="string">2022-12-19T03:44:44Z</DateUtc></FrequencyChange></FrequencyChanges></Clock>\n	Wisconsin-1175-2	59.957	1.0.0.546	1	-1557561557	Professional	2.0.10.356	2.0.10.356	12-19-2022	12/19/2022 3:44:44 AM	11:44:44	2.0.10.252	2				2	1	1	BlockProc2	List3	1																				2	1	1				NumberProc2	List4									1	Button1.png	Button2.png	Button3.png	Button4.png	Yellowtriangle2.png							z	0				10	1	1	0	TrialProc	NumberList1							1	z	0	1	224839	0	z	6485	number
Wisconsin	1175	2	<?xml version="1.0"?>\n<Clock xmlns:dt="urn:schemas-microsoft-com:datatypes"><Description dt:dt="string">E-Prime Primary Realtime Clock</Description><StartTime><Timestamp dt:dt="int">0</Timestamp><DateUtc dt:dt="string">2022-12-19T03:44:44Z</DateUtc></StartTime><FrequencyChanges><FrequencyChange><Frequency dt:dt="r8">2929853</Frequency><Timestamp dt:dt="r8">7031787886</Timestamp><Current dt:dt="r8">0</Current><DateUtc dt:dt="string">2022-12-19T03:44:44Z</DateUtc></FrequencyChange></FrequencyChanges></Clock>\n	Wisconsin-1175-2	59.957	1.0.0.546	1	-1557561557	Professional	2.0.10.356	2.0.10.356	12-19-2022	12/19/2022 3:44:44 AM	11:44:44	2.0.10.252	2				2	1	1	BlockProc2	List3	1																				2	1	1				NumberProc2	List4									2	Button1.png	Button2.png	Button3.png	Button4.png	Redstar1.png							v	1				6	1	2	0	TrialProc	NumberList1							0	v	0	0	233862	0	c	7509	number
Wisconsin	1175	2	<?xml version="1.0"?>\n<Clock xmlns:dt="urn:schemas-microsoft-com:datatypes"><Description dt:dt="string">E-Prime Primary Realtime Clock</Description><StartTime><Timestamp dt:dt="int">0</Timestamp><DateUtc dt:dt="string">2022-12-19T03:44:44Z</DateUtc></StartTime><FrequencyChanges><FrequencyChange><Frequency dt:dt="r8">2929853</Frequency><Timestamp dt:dt="r8">7031787886</Timestamp><Current dt:dt="r8">0</Current><DateUtc dt:dt="string">2022-12-19T03:44:44Z</DateUtc></FrequencyChange></FrequencyChanges></Clock>\n	Wisconsin-1175-2	59.957	1.0.0.546	1	-1557561557	Professional	2.0.10.356	2.0.10.356	12-19-2022	12/19/2022 3:44:44 AM	11:44:44	2.0.10.252	2				2	1	1	BlockProc2	List3	1																				2	1	1				NumberProc2	List4									3	Button1.png	Button2.png	Button3.png	Button4.png	Redtriangle2.png							z	1				7	1	3	0	TrialProc	NumberList1							0	z	0	1	243920	0	c	5547	number
Wisconsin	1175	2	<?xml version="1.0"?>\n<Clock xmlns:dt="urn:schemas-microsoft-com:datatypes"><Description dt:dt="string">E-Prime Primary Realtime Clock</Description><StartTime><Timestamp dt:dt="int">0</Timestamp><DateUtc dt:dt="string">2022-12-19T03:44:44Z</DateUtc></StartTime><FrequencyChanges><FrequencyChange><Frequency dt:dt="r8">2929853</Frequency><Timestamp dt:dt="r8">7031787886</Timestamp><Current dt:dt="r8">0</Current><DateUtc dt:dt="string">2022-12-19T03:44:44Z</DateUtc></FrequencyChange></FrequencyChanges></Clock>\n	Wisconsin-1175-2	59.957	1.0.0.546	1	-1557561557	Professional	2.0.10.356	2.0.10.356	12-19-2022	12/19/2022 3:44:44 AM	11:44:44	2.0.10.252	2				2	1	1	BlockProc2	List3	1																				2	1	1				NumberProc2	List4									4	Button1.png	Button2.png	Button3.png	Button4.png	Greencross2.png							z	1				4	1	4	0	TrialProc	NumberList1							0	z	0	1	252009	0	x	6465	number
Wisconsin	1175	2	<?xml version="1.0"?>\n<Clock xmlns:dt="urn:schemas-microsoft-com:datatypes"><Description dt:dt="string">E-Prime Primary Realtime Clock</Description><StartTime><Timestamp dt:dt="int">0</Timestamp><DateUtc dt:dt="string">2022-12-19T03:44:44Z</DateUtc></StartTime><FrequencyChanges><FrequencyChange><Frequency dt:dt="r8">2929853</Frequency><Timestamp dt:dt="r8">7031787886</Timestamp><Current dt:dt="r8">0</Current><DateUtc dt:dt="string">2022-12-19T03:44:44Z</DateUtc></FrequencyChange></FrequencyChanges></Clock>\n	Wisconsin-1175-2	59.957	1.0.0.546	1	-1557561557	Professional	2.0.10.356	2.0.10.356	12-19-2022	12/19/2022 3:44:44 AM	11:44:44	2.0.10.252	2				2	1	1	BlockProc2	List3	1																				2	1	1				NumberProc2	List4									5	Button1.png	Button2.png	Button3.png	Button4.png	Bluestar4.png							x	1				2	1	5	0	TrialProc	NumberList1							0	x	1	0	261015	0	v	4643	number
Wisconsin	1175	2	<?xml version="1.0"?>\n<Clock xmlns:dt="urn:schemas-microsoft-com:datatypes"><Description dt:dt="string">E-Prime Primary Realtime Clock</Description><StartTime><Timestamp dt:dt="int">0</Timestamp><DateUtc dt:dt="string">2022-12-19T03:44:44Z</DateUtc></StartTime><FrequencyChanges><FrequencyChange><Frequency dt:dt="r8">2929853</Frequency><Timestamp dt:dt="r8">7031787886</Timestamp><Current dt:dt="r8">0</Current><DateUtc dt:dt="string">2022-12-19T03:44:44Z</DateUtc></FrequencyChange></FrequencyChanges></Clock>\n	Wisconsin-1175-2	59.957	1.0.0.546	1	-1557561557	Professional	2.0.10.356	2.0.10.356	12-19-2022	12/19/2022 3:44:44 AM	11:44:44	2.0.10.252	2				2	1	1	BlockProc2	List3	1																				2	1	1				NumberProc2	List4									6	Button1.png	Button2.png	Button3.png	Button4.png	Yellowcross2.png							z	1				9	1	6	0	TrialProc	NumberList1							0	z	0	0	268187	0	x	3406	number
Wisconsin	1175	2	<?xml version="1.0"?>\n<Clock xmlns:dt="urn:schemas-microsoft-com:datatypes"><Description dt:dt="string">E-Prime Primary Realtime Clock</Description><StartTime><Timestamp dt:dt="int">0</Timestamp><DateUtc dt:dt="string">2022-12-19T03:44:44Z</DateUtc></StartTime><FrequencyChanges><FrequencyChange><Frequency dt:dt="r8">2929853</Frequency><Timestamp dt:dt="r8">7031787886</Timestamp><Current dt:dt="r8">0</Current><DateUtc dt:dt="string">2022-12-19T03:44:44Z</DateUtc></FrequencyChange></FrequencyChanges></Clock>\n	Wisconsin-1175-2	59.957	1.0.0.546	1	-1557561557	Professional	2.0.10.356	2.0.10.356	12-19-2022	12/19/2022 3:44:44 AM	11:44:44	2.0.10.252	2				2	1	1	BlockProc2	List3	1																				2	1	1				NumberProc2	List4									7	Button1.png	Button2.png	Button3.png	Button4.png	Bluetriangle4.png							x	1				3	1	7	0	TrialProc	NumberList1							0	x	0	1	274125	0	v	2764	number
Wisconsin	1175	2	<?xml version="1.0"?>\n<Clock xmlns:dt="urn:schemas-microsoft-com:datatypes"><Description dt:dt="string">E-Prime Primary Realtime Clock</Description><StartTime><Timestamp dt:dt="int">0</Timestamp><DateUtc dt:dt="string">2022-12-19T03:44:44Z</DateUtc></StartTime><FrequencyChanges><FrequencyChange><Frequency dt:dt="r8">2929853</Frequency><Timestamp dt:dt="r8">7031787886</Timestamp><Current dt:dt="r8">0</Current><DateUtc dt:dt="string">2022-12-19T03:44:44Z</DateUtc></FrequencyChange></FrequencyChanges></Clock>\n	Wisconsin-1175-2	59.957	1.0.0.546	1	-1557561557	Professional	2.0.10.356	2.0.10.356	12-19-2022	12/19/2022 3:44:44 AM	11:44:44	2.0.10.252	2				2	1	1	BlockProc2	List3	1																				2	1	1				NumberProc2	List4									8	Button1.png	Button2.png	Button3.png	Button4.png	Greenstar1.png							v	0				5	1	8	0	TrialProc	NumberList1							1	v	0	1	279429	0	v	5476	number
Wisconsin	1175	2	<?xml version="1.0"?>\n<Clock xmlns:dt="urn:schemas-microsoft-com:datatypes"><Description dt:dt="string">E-Prime Primary Realtime Clock</Description><StartTime><Timestamp dt:dt="int">0</Timestamp><DateUtc dt:dt="string">2022-12-19T03:44:44Z</DateUtc></StartTime><FrequencyChanges><FrequencyChange><Frequency dt:dt="r8">2929853</Frequency><Timestamp dt:dt="r8">7031787886</Timestamp><Current dt:dt="r8">0</Current><DateUtc dt:dt="string">2022-12-19T03:44:44Z</DateUtc></FrequencyChange></FrequencyChanges></Clock>\n	Wisconsin-1175-2	59.957	1.0.0.546	1	-1557561557	Professional	2.0.10.356	2.0.10.356	12-19-2022	12/19/2022 3:44:44 AM	11:44:44	2.0.10.252	2				2	1	1	BlockProc2	List3	1																				2	1	1				NumberProc2	List4									9	Button1.png	Button2.png	Button3.png	Button4.png	Bluecross3.png							c	1				1	1	9	0	TrialProc	NumberList1							0	c	0	1	287435	0	z	4717	number
Wisconsin	1175	2	<?xml version="1.0"?>\n<Clock xmlns:dt="urn:schemas-microsoft-com:datatypes"><Description dt:dt="string">E-Prime Primary Realtime Clock</Description><StartTime><Timestamp dt:dt="int">0</Timestamp><DateUtc dt:dt="string">2022-12-19T03:44:44Z</DateUtc></StartTime><FrequencyChanges><FrequencyChange><Frequency dt:dt="r8">2929853</Frequency><Timestamp dt:dt="r8">7031787886</Timestamp><Current dt:dt="r8">0</Current><DateUtc dt:dt="string">2022-12-19T03:44:44Z</DateUtc></FrequencyChange></FrequencyChanges></Clock>\n	Wisconsin-1175-2	59.957	1.0.0.546	1	-1557561557	Professional	2.0.10.356	2.0.10.356	12-19-2022	12/19/2022 3:44:44 AM	11:44:44	2.0.10.252	2				2	1	1	BlockProc2	List3	1																				2	1	1				NumberProc2	List4									10	Button1.png	Button2.png	Button3.png	Button4.png	yellowcircle4.png							x	1				8	1	10	0	TrialProc	NumberList1							0	x	0	1	294690	0	v	4998	number
Wisconsin	1175	2	<?xml version="1.0"?>\n<Clock xmlns:dt="urn:schemas-microsoft-com:datatypes"><Description dt:dt="string">E-Prime Primary Realtime Clock</Description><StartTime><Timestamp dt:dt="int">0</Timestamp><DateUtc dt:dt="string">2022-12-19T03:44:44Z</DateUtc></StartTime><FrequencyChanges><FrequencyChange><Frequency dt:dt="r8">2929853</Frequency><Timestamp dt:dt="r8">7031787886</Timestamp><Current dt:dt="r8">0</Current><DateUtc dt:dt="string">2022-12-19T03:44:44Z</DateUtc></FrequencyChange></FrequencyChanges></Clock>\n	Wisconsin-1175-2	59.957	1.0.0.546	1	-1557561557	Professional	2.0.10.356	2.0.10.356	12-19-2022	12/19/2022 3:44:44 AM	11:44:44	2.0.10.252	2				2	1	1	BlockProc2	List3	2																				1	1	2				ColorProc2	List4									1	BUTTON1.png	BUTTON2.PNG	BUTTON3.png	BUTTON4.png	greencross4.png				4	1	1	z	1							0	TrialProc	ColorList2							0	z	0	1	302229	0	v	6658	color
Wisconsin	1175	2	<?xml version="1.0"?>\n<Clock xmlns:dt="urn:schemas-microsoft-com:datatypes"><Description dt:dt="string">E-Prime Primary Realtime Clock</Description><StartTime><Timestamp dt:dt="int">0</Timestamp><DateUtc dt:dt="string">2022-12-19T03:44:44Z</DateUtc></StartTime><FrequencyChanges><FrequencyChange><Frequency dt:dt="r8">2929853</Frequency><Timestamp dt:dt="r8">7031787886</Timestamp><Current dt:dt="r8">0</Current><DateUtc dt:dt="string">2022-12-19T03:44:44Z</DateUtc></FrequencyChange></FrequencyChanges></Clock>\n	Wisconsin-1175-2	59.957	1.0.0.546	1	-1557561557	Professional	2.0.10.356	2.0.10.356	12-19-2022	12/19/2022 3:44:44 AM	11:44:44	2.0.10.252	2				2	1	1	BlockProc2	List3	2																				1	1	2				ColorProc2	List4									2	BUTTON1.png	BUTTON2.PNG	BUTTON3.png	BUTTON4.png	yellowtriangle3.png				10	1	2	x	1							0	TrialProc	ColorList2							0	x	0	1	311419	0	c	8892	color
Wisconsin	1175	2	<?xml version="1.0"?>\n<Clock xmlns:dt="urn:schemas-microsoft-com:datatypes"><Description dt:dt="string">E-Prime Primary Realtime Clock</Description><StartTime><Timestamp dt:dt="int">0</Timestamp><DateUtc dt:dt="string">2022-12-19T03:44:44Z</DateUtc></StartTime><FrequencyChanges><FrequencyChange><Frequency dt:dt="r8">2929853</Frequency><Timestamp dt:dt="r8">7031787886</Timestamp><Current dt:dt="r8">0</Current><DateUtc dt:dt="string">2022-12-19T03:44:44Z</DateUtc></FrequencyChange></FrequencyChanges></Clock>\n	Wisconsin-1175-2	59.957	1.0.0.546	1	-1557561557	Professional	2.0.10.356	2.0.10.356	12-19-2022	12/19/2022 3:44:44 AM	11:44:44	2.0.10.252	2				2	1	1	BlockProc2	List3	2																				1	1	2				ColorProc2	List4									3	BUTTON1.png	BUTTON2.PNG	BUTTON3.png	BUTTON4.png	bluecross1.png				1	1	3	v	0							0	TrialProc	ColorList2							1	v	0	1	322844	0	v	4490	color
Wisconsin	1175	2	<?xml version="1.0"?>\n<Clock xmlns:dt="urn:schemas-microsoft-com:datatypes"><Description dt:dt="string">E-Prime Primary Realtime Clock</Description><StartTime><Timestamp dt:dt="int">0</Timestamp><DateUtc dt:dt="string">2022-12-19T03:44:44Z</DateUtc></StartTime><FrequencyChanges><FrequencyChange><Frequency dt:dt="r8">2929853</Frequency><Timestamp dt:dt="r8">7031787886</Timestamp><Current dt:dt="r8">0</Current><DateUtc dt:dt="string">2022-12-19T03:44:44Z</DateUtc></FrequencyChange></FrequencyChanges></Clock>\n	Wisconsin-1175-2	59.957	1.0.0.546	1	-1557561557	Professional	2.0.10.356	2.0.10.356	12-19-2022	12/19/2022 3:44:44 AM	11:44:44	2.0.10.252	2				2	1	1	BlockProc2	List3	2																				1	1	2				ColorProc2	List4									4	BUTTON1.png	BUTTON2.PNG	BUTTON3.png	BUTTON4.png	redstar4.png				8	1	4	c	1							0	TrialProc	ColorList2							0	c	1	0	329865	0	v	4077	color
Wisconsin	1175	2	<?xml version="1.0"?>\n<Clock xmlns:dt="urn:schemas-microsoft-com:datatypes"><Description dt:dt="string">E-Prime Primary Realtime Clock</Description><StartTime><Timestamp dt:dt="int">0</Timestamp><DateUtc dt:dt="string">2022-12-19T03:44:44Z</DateUtc></StartTime><FrequencyChanges><FrequencyChange><Frequency dt:dt="r8">2929853</Frequency><Timestamp dt:dt="r8">7031787886</Timestamp><Current dt:dt="r8">0</Current><DateUtc dt:dt="string">2022-12-19T03:44:44Z</DateUtc></FrequencyChange></FrequencyChanges></Clock>\n	Wisconsin-1175-2	59.957	1.0.0.546	1	-1557561557	Professional	2.0.10.356	2.0.10.356	12-19-2022	12/19/2022 3:44:44 AM	11:44:44	2.0.10.252	2				2	1	1	BlockProc2	List3	2																				1	1	2				ColorProc2	List4									5	BUTTON1.png	BUTTON2.PNG	BUTTON3.png	BUTTON4.png	greentriangle2.png				6	1	5	z	0							0	TrialProc	ColorList2							1	z	0	0	336470	0	z	4063	color
Wisconsin	1175	2	<?xml version="1.0"?>\n<Clock xmlns:dt="urn:schemas-microsoft-com:datatypes"><Description dt:dt="string">E-Prime Primary Realtime Clock</Description><StartTime><Timestamp dt:dt="int">0</Timestamp><DateUtc dt:dt="string">2022-12-19T03:44:44Z</DateUtc></StartTime><FrequencyChanges><FrequencyChange><Frequency dt:dt="r8">2929853</Frequency><Timestamp dt:dt="r8">7031787886</Timestamp><Current dt:dt="r8">0</Current><DateUtc dt:dt="string">2022-12-19T03:44:44Z</DateUtc></FrequencyChange></FrequencyChanges></Clock>\n	Wisconsin-1175-2	59.957	1.0.0.546	1	-1557561557	Professional	2.0.10.356	2.0.10.356	12-19-2022	12/19/2022 3:44:44 AM	11:44:44	2.0.10.252	2				2	1	1	BlockProc2	List3	2																				1	1	2				ColorProc2	List4									6	BUTTON1.png	BUTTON2.PNG	BUTTON3.png	BUTTON4.png	yellowcircle2.png				9	1	6	x	1							0	TrialProc	ColorList2							0	x	0	1	343075	0	z	3762	color
Wisconsin	1175	2	<?xml version="1.0"?>\n<Clock xmlns:dt="urn:schemas-microsoft-com:datatypes"><Description dt:dt="string">E-Prime Primary Realtime Clock</Description><StartTime><Timestamp dt:dt="int">0</Timestamp><DateUtc dt:dt="string">2022-12-19T03:44:44Z</DateUtc></StartTime><FrequencyChanges><FrequencyChange><Frequency dt:dt="r8">2929853</Frequency><Timestamp dt:dt="r8">7031787886</Timestamp><Current dt:dt="r8">0</Current><DateUtc dt:dt="string">2022-12-19T03:44:44Z</DateUtc></FrequencyChange></FrequencyChanges></Clock>\n	Wisconsin-1175-2	59.957	1.0.0.546	1	-1557561557	Professional	2.0.10.356	2.0.10.356	12-19-2022	12/19/2022 3:44:44 AM	11:44:44	2.0.10.252	2				2	1	1	BlockProc2	List3	2																				1	1	2				ColorProc2	List4									7	BUTTON1.png	BUTTON2.PNG	BUTTON3.png	BUTTON4.png	Greencircle1.png				3	1	7	z	0							0	TrialProc	ColorList2							1	z	0	1	349380	0	z	2785	color
Wisconsin	1175	2	<?xml version="1.0"?>\n<Clock xmlns:dt="urn:schemas-microsoft-com:datatypes"><Description dt:dt="string">E-Prime Primary Realtime Clock</Description><StartTime><Timestamp dt:dt="int">0</Timestamp><DateUtc dt:dt="string">2022-12-19T03:44:44Z</DateUtc></StartTime><FrequencyChanges><FrequencyChange><Frequency dt:dt="r8">2929853</Frequency><Timestamp dt:dt="r8">7031787886</Timestamp><Current dt:dt="r8">0</Current><DateUtc dt:dt="string">2022-12-19T03:44:44Z</DateUtc></FrequencyChange></FrequencyChanges></Clock>\n	Wisconsin-1175-2	59.957	1.0.0.546	1	-1557561557	Professional	2.0.10.356	2.0.10.356	12-19-2022	12/19/2022 3:44:44 AM	11:44:44	2.0.10.252	2				2	1	1	BlockProc2	List3	2																				1	1	2				ColorProc2	List4									8	BUTTON1.png	BUTTON2.PNG	BUTTON3.png	BUTTON4.png	Redcircle2.png				7	1	8	c	1							0	TrialProc	ColorList2							0	c	0	1	354700	0	x	6760	color
Wisconsin	1175	2	<?xml version="1.0"?>\n<Clock xmlns:dt="urn:schemas-microsoft-com:datatypes"><Description dt:dt="string">E-Prime Primary Realtime Clock</Description><StartTime><Timestamp dt:dt="int">0</Timestamp><DateUtc dt:dt="string">2022-12-19T03:44:44Z</DateUtc></StartTime><FrequencyChanges><FrequencyChange><Frequency dt:dt="r8">2929853</Frequency><Timestamp dt:dt="r8">7031787886</Timestamp><Current dt:dt="r8">0</Current><DateUtc dt:dt="string">2022-12-19T03:44:44Z</DateUtc></FrequencyChange></FrequencyChanges></Clock>\n	Wisconsin-1175-2	59.957	1.0.0.546	1	-1557561557	Professional	2.0.10.356	2.0.10.356	12-19-2022	12/19/2022 3:44:44 AM	11:44:44	2.0.10.252	2				2	1	1	BlockProc2	List3	2																				1	1	2				ColorProc2	List4									9	BUTTON1.png	BUTTON2.PNG	BUTTON3.png	BUTTON4.png	greenstar4.png				5	1	9	z	0							0	TrialProc	ColorList2							1	z	0	1	363990	0	z	9070	color
Wisconsin	1175	2	<?xml version="1.0"?>\n<Clock xmlns:dt="urn:schemas-microsoft-com:datatypes"><Description dt:dt="string">E-Prime Primary Realtime Clock</Description><StartTime><Timestamp dt:dt="int">0</Timestamp><DateUtc dt:dt="string">2022-12-19T03:44:44Z</DateUtc></StartTime><FrequencyChanges><FrequencyChange><Frequency dt:dt="r8">2929853</Frequency><Timestamp dt:dt="r8">7031787886</Timestamp><Current dt:dt="r8">0</Current><DateUtc dt:dt="string">2022-12-19T03:44:44Z</DateUtc></FrequencyChange></FrequencyChanges></Clock>\n	Wisconsin-1175-2	59.957	1.0.0.546	1	-1557561557	Professional	2.0.10.356	2.0.10.356	12-19-2022	12/19/2022 3:44:44 AM	11:44:44	2.0.10.252	2				2	1	1	BlockProc2	List3	2																				1	1	2				ColorProc2	List4									10	BUTTON1.png	BUTTON2.PNG	BUTTON3.png	BUTTON4.png	bluestar3.png				2	1	10	v	1							0	TrialProc	ColorList2							0	v	0	1	375599	10040		0	color
Wisconsin	1175	2	<?xml version="1.0"?>\n<Clock xmlns:dt="urn:schemas-microsoft-com:datatypes"><Description dt:dt="string">E-Prime Primary Realtime Clock</Description><StartTime><Timestamp dt:dt="int">0</Timestamp><DateUtc dt:dt="string">2022-12-19T03:44:44Z</DateUtc></StartTime><FrequencyChanges><FrequencyChange><Frequency dt:dt="r8">2929853</Frequency><Timestamp dt:dt="r8">7031787886</Timestamp><Current dt:dt="r8">0</Current><DateUtc dt:dt="string">2022-12-19T03:44:44Z</DateUtc></FrequencyChange></FrequencyChanges></Clock>\n	Wisconsin-1175-2	59.957	1.0.0.546	1	-1557561557	Professional	2.0.10.356	2.0.10.356	12-19-2022	12/19/2022 3:44:44 AM	11:44:44	2.0.10.252	2				2	1	1	BlockProc2	List3	3																				3	1	3				ShapeProc2	List4									1	Button1.png	Button2.png	Button3.png	Button4.png	Bluetriangle2.png							x	1							0	TrialProc	ShapeList1				2	1	1	0	x	0	1	388158	10024		0	Shape
Wisconsin	1175	2	<?xml version="1.0"?>\n<Clock xmlns:dt="urn:schemas-microsoft-com:datatypes"><Description dt:dt="string">E-Prime Primary Realtime Clock</Description><StartTime><Timestamp dt:dt="int">0</Timestamp><DateUtc dt:dt="string">2022-12-19T03:44:44Z</DateUtc></StartTime><FrequencyChanges><FrequencyChange><Frequency dt:dt="r8">2929853</Frequency><Timestamp dt:dt="r8">7031787886</Timestamp><Current dt:dt="r8">0</Current><DateUtc dt:dt="string">2022-12-19T03:44:44Z</DateUtc></FrequencyChange></FrequencyChanges></Clock>\n	Wisconsin-1175-2	59.957	1.0.0.546	1	-1557561557	Professional	2.0.10.356	2.0.10.356	12-19-2022	12/19/2022 3:44:44 AM	11:44:44	2.0.10.252	2				2	1	1	BlockProc2	List3	3																				3	1	3				ShapeProc2	List4									2	Button1.png	Button2.png	Button3.png	Button4.png	Redtriangle3.png							x	1							0	TrialProc	ShapeList1				7	1	2	0	x	0	1	400700	0	c	8966	Shape
Wisconsin	1175	2	<?xml version="1.0"?>\n<Clock xmlns:dt="urn:schemas-microsoft-com:datatypes"><Description dt:dt="string">E-Prime Primary Realtime Clock</Description><StartTime><Timestamp dt:dt="int">0</Timestamp><DateUtc dt:dt="string">2022-12-19T03:44:44Z</DateUtc></StartTime><FrequencyChanges><FrequencyChange><Frequency dt:dt="r8">2929853</Frequency><Timestamp dt:dt="r8">7031787886</Timestamp><Current dt:dt="r8">0</Current><DateUtc dt:dt="string">2022-12-19T03:44:44Z</DateUtc></FrequencyChange></FrequencyChanges></Clock>\n	Wisconsin-1175-2	59.957	1.0.0.546	1	-1557561557	Professional	2.0.10.356	2.0.10.356	12-19-2022	12/19/2022 3:44:44 AM	11:44:44	2.0.10.252	2				2	1	1	BlockProc2	List3	3																				3	1	3				ShapeProc2	List4									3	Button1.png	Button2.png	Button3.png	Button4.png	Redstar3.png							v	0							0	TrialProc	ShapeList1				6	1	3	1	v	0	1	412209	0	v	7072	Shape
Wisconsin	1175	2	<?xml version="1.0"?>\n<Clock xmlns:dt="urn:schemas-microsoft-com:datatypes"><Description dt:dt="string">E-Prime Primary Realtime Clock</Description><StartTime><Timestamp dt:dt="int">0</Timestamp><DateUtc dt:dt="string">2022-12-19T03:44:44Z</DateUtc></StartTime><FrequencyChanges><FrequencyChange><Frequency dt:dt="r8">2929853</Frequency><Timestamp dt:dt="r8">7031787886</Timestamp><Current dt:dt="r8">0</Current><DateUtc dt:dt="string">2022-12-19T03:44:44Z</DateUtc></FrequencyChange></FrequencyChanges></Clock>\n	Wisconsin-1175-2	59.957	1.0.0.546	1	-1557561557	Professional	2.0.10.356	2.0.10.356	12-19-2022	12/19/2022 3:44:44 AM	11:44:44	2.0.10.252	2				2	1	1	BlockProc2	List3	3																				3	1	3				ShapeProc2	List4									4	Button1.png	Button2.png	Button3.png	Button4.png	Bluecircle3.png							z	1							0	TrialProc	ShapeList1				1	1	4	0	z	0	1	421816	10023		0	Shape
Wisconsin	1175	2	<?xml version="1.0"?>\n<Clock xmlns:dt="urn:schemas-microsoft-com:datatypes"><Description dt:dt="string">E-Prime Primary Realtime Clock</Description><StartTime><Timestamp dt:dt="int">0</Timestamp><DateUtc dt:dt="string">2022-12-19T03:44:44Z</DateUtc></StartTime><FrequencyChanges><FrequencyChange><Frequency dt:dt="r8">2929853</Frequency><Timestamp dt:dt="r8">7031787886</Timestamp><Current dt:dt="r8">0</Current><DateUtc dt:dt="string">2022-12-19T03:44:44Z</DateUtc></FrequencyChange></FrequencyChanges></Clock>\n	Wisconsin-1175-2	59.957	1.0.0.546	1	-1557561557	Professional	2.0.10.356	2.0.10.356	12-19-2022	12/19/2022 3:44:44 AM	11:44:44	2.0.10.252	2				2	1	1	BlockProc2	List3	3																				3	1	3				ShapeProc2	List4									5	Button1.png	Button2.png	Button3.png	Button4.png	redcircle1.png							z	1							0	TrialProc	ShapeList1				4	1	5	0	z	0	1	434358	0	x	7050	Shape
Wisconsin	1175	2	<?xml version="1.0"?>\n<Clock xmlns:dt="urn:schemas-microsoft-com:datatypes"><Description dt:dt="string">E-Prime Primary Realtime Clock</Description><StartTime><Timestamp dt:dt="int">0</Timestamp><DateUtc dt:dt="string">2022-12-19T03:44:44Z</DateUtc></StartTime><FrequencyChanges><FrequencyChange><Frequency dt:dt="r8">2929853</Frequency><Timestamp dt:dt="r8">7031787886</Timestamp><Current dt:dt="r8">0</Current><DateUtc dt:dt="string">2022-12-19T03:44:44Z</DateUtc></FrequencyChange></FrequencyChanges></Clock>\n	Wisconsin-1175-2	59.957	1.0.0.546	1	-1557561557	Professional	2.0.10.356	2.0.10.356	12-19-2022	12/19/2022 3:44:44 AM	11:44:44	2.0.10.252	2				2	1	1	BlockProc2	List3	3																				3	1	3				ShapeProc2	List4									6	Button1.png	Button2.png	Button3.png	Button4.png	Yellowstar2.png							v	0							0	TrialProc	ShapeList1				9	1	6	1	v	0	0	443948	0	v	9827	Shape
Wisconsin	1175	2	<?xml version="1.0"?>\n<Clock xmlns:dt="urn:schemas-microsoft-com:datatypes"><Description dt:dt="string">E-Prime Primary Realtime Clock</Description><StartTime><Timestamp dt:dt="int">0</Timestamp><DateUtc dt:dt="string">2022-12-19T03:44:44Z</DateUtc></StartTime><FrequencyChanges><FrequencyChange><Frequency dt:dt="r8">2929853</Frequency><Timestamp dt:dt="r8">7031787886</Timestamp><Current dt:dt="r8">0</Current><DateUtc dt:dt="string">2022-12-19T03:44:44Z</DateUtc></FrequencyChange></FrequencyChanges></Clock>\n	Wisconsin-1175-2	59.957	1.0.0.546	1	-1557561557	Professional	2.0.10.356	2.0.10.356	12-19-2022	12/19/2022 3:44:44 AM	11:44:44	2.0.10.252	2				2	1	1	BlockProc2	List3	3																				3	1	3				ShapeProc2	List4									7	Button1.png	Button2.png	Button3.png	Button4.png	Greenstar3.png							v	1							0	TrialProc	ShapeList1				3	1	7	0	v	0	0	456307	0	c	7355	Shape
Wisconsin	1175	2	<?xml version="1.0"?>\n<Clock xmlns:dt="urn:schemas-microsoft-com:datatypes"><Description dt:dt="string">E-Prime Primary Realtime Clock</Description><StartTime><Timestamp dt:dt="int">0</Timestamp><DateUtc dt:dt="string">2022-12-19T03:44:44Z</DateUtc></StartTime><FrequencyChanges><FrequencyChange><Frequency dt:dt="r8">2929853</Frequency><Timestamp dt:dt="r8">7031787886</Timestamp><Current dt:dt="r8">0</Current><DateUtc dt:dt="string">2022-12-19T03:44:44Z</DateUtc></FrequencyChange></FrequencyChanges></Clock>\n	Wisconsin-1175-2	59.957	1.0.0.546	1	-1557561557	Professional	2.0.10.356	2.0.10.356	12-19-2022	12/19/2022 3:44:44 AM	11:44:44	2.0.10.252	2				2	1	1	BlockProc2	List3	3																				3	1	3				ShapeProc2	List4									8	Button1.png	Button2.png	Button3.png	Button4.png	Redcross2.png							c	0							0	TrialProc	ShapeList1				5	1	8	1	c	0	1	466198	0	c	5992	Shape
Wisconsin	1175	2	<?xml version="1.0"?>\n<Clock xmlns:dt="urn:schemas-microsoft-com:datatypes"><Description dt:dt="string">E-Prime Primary Realtime Clock</Description><StartTime><Timestamp dt:dt="int">0</Timestamp><DateUtc dt:dt="string">2022-12-19T03:44:44Z</DateUtc></StartTime><FrequencyChanges><FrequencyChange><Frequency dt:dt="r8">2929853</Frequency><Timestamp dt:dt="r8">7031787886</Timestamp><Current dt:dt="r8">0</Current><DateUtc dt:dt="string">2022-12-19T03:44:44Z</DateUtc></FrequencyChange></FrequencyChanges></Clock>\n	Wisconsin-1175-2	59.957	1.0.0.546	1	-1557561557	Professional	2.0.10.356	2.0.10.356	12-19-2022	12/19/2022 3:44:44 AM	11:44:44	2.0.10.252	2				2	1	1	BlockProc2	List3	3																				3	1	3				ShapeProc2	List4									9	Button1.png	Button2.png	Button3.png	Button4.png	yellowcross4.png							c	1							0	TrialProc	ShapeList1				8	1	9	0	c	0	1	474721	10024		0	Shape
Wisconsin	1175	2	<?xml version="1.0"?>\n<Clock xmlns:dt="urn:schemas-microsoft-com:datatypes"><Description dt:dt="string">E-Prime Primary Realtime Clock</Description><StartTime><Timestamp dt:dt="int">0</Timestamp><DateUtc dt:dt="string">2022-12-19T03:44:44Z</DateUtc></StartTime><FrequencyChanges><FrequencyChange><Frequency dt:dt="r8">2929853</Frequency><Timestamp dt:dt="r8">7031787886</Timestamp><Current dt:dt="r8">0</Current><DateUtc dt:dt="string">2022-12-19T03:44:44Z</DateUtc></FrequencyChange></FrequencyChanges></Clock>\n	Wisconsin-1175-2	59.957	1.0.0.546	1	-1557561557	Professional	2.0.10.356	2.0.10.356	12-19-2022	12/19/2022 3:44:44 AM	11:44:44	2.0.10.252	2				2	1	1	BlockProc2	List3	3																				3	1	3				ShapeProc2	List4									10	Button1.png	Button2.png	Button3.png	Button4.png	Yellowtriangle1.png							x	0							0	TrialProc	ShapeList1				10	1	10	1	x	0	1	487263	0	x	8446	Shape
Wisconsin	1175	2	<?xml version="1.0"?>\n<Clock xmlns:dt="urn:schemas-microsoft-com:datatypes"><Description dt:dt="string">E-Prime Primary Realtime Clock</Description><StartTime><Timestamp dt:dt="int">0</Timestamp><DateUtc dt:dt="string">2022-12-19T03:44:44Z</DateUtc></StartTime><FrequencyChanges><FrequencyChange><Frequency dt:dt="r8">2929853</Frequency><Timestamp dt:dt="r8">7031787886</Timestamp><Current dt:dt="r8">0</Current><DateUtc dt:dt="string">2022-12-19T03:44:44Z</DateUtc></FrequencyChange></FrequencyChanges></Clock>\n	Wisconsin-1175-2	59.957	1.0.0.546	1	-1557561557	Professional	2.0.10.356	2.0.10.356	12-19-2022	12/19/2022 3:44:44 AM	11:44:44	2.0.10.252	3				1	1	2	BlockProc	List3	1																	3	1	1							ShapeProc	List2									1	Button1.png	Button2.png	Button3.png	Button4.png	Redcross1.png							c	1							0	TrialProc	ShapeList	5	1	1				0	c	0	0	498254	0	z	3774	Shape
Wisconsin	1175	2	<?xml version="1.0"?>\n<Clock xmlns:dt="urn:schemas-microsoft-com:datatypes"><Description dt:dt="string">E-Prime Primary Realtime Clock</Description><StartTime><Timestamp dt:dt="int">0</Timestamp><DateUtc dt:dt="string">2022-12-19T03:44:44Z</DateUtc></StartTime><FrequencyChanges><FrequencyChange><Frequency dt:dt="r8">2929853</Frequency><Timestamp dt:dt="r8">7031787886</Timestamp><Current dt:dt="r8">0</Current><DateUtc dt:dt="string">2022-12-19T03:44:44Z</DateUtc></FrequencyChange></FrequencyChanges></Clock>\n	Wisconsin-1175-2	59.957	1.0.0.546	1	-1557561557	Professional	2.0.10.356	2.0.10.356	12-19-2022	12/19/2022 3:44:44 AM	11:44:44	2.0.10.252	3				1	1	2	BlockProc	List3	1																	3	1	1							ShapeProc	List2									2	Button1.png	Button2.png	Button3.png	Button4.png	Redcross4.png							c	0							0	TrialProc	ShapeList	6	1	2				1	c	0	1	504559	0	c	7549	Shape
Wisconsin	1175	2	<?xml version="1.0"?>\n<Clock xmlns:dt="urn:schemas-microsoft-com:datatypes"><Description dt:dt="string">E-Prime Primary Realtime Clock</Description><StartTime><Timestamp dt:dt="int">0</Timestamp><DateUtc dt:dt="string">2022-12-19T03:44:44Z</DateUtc></StartTime><FrequencyChanges><FrequencyChange><Frequency dt:dt="r8">2929853</Frequency><Timestamp dt:dt="r8">7031787886</Timestamp><Current dt:dt="r8">0</Current><DateUtc dt:dt="string">2022-12-19T03:44:44Z</DateUtc></FrequencyChange></FrequencyChanges></Clock>\n	Wisconsin-1175-2	59.957	1.0.0.546	1	-1557561557	Professional	2.0.10.356	2.0.10.356	12-19-2022	12/19/2022 3:44:44 AM	11:44:44	2.0.10.252	3				1	1	2	BlockProc	List3	1																	3	1	1							ShapeProc	List2									3	Button1.png	Button2.png	Button3.png	Button4.png	Greentriangle4.png							x	0							0	TrialProc	ShapeList	4	1	3				1	x	0	1	514650	0	x	5697	Shape
Wisconsin	1175	2	<?xml version="1.0"?>\n<Clock xmlns:dt="urn:schemas-microsoft-com:datatypes"><Description dt:dt="string">E-Prime Primary Realtime Clock</Description><StartTime><Timestamp dt:dt="int">0</Timestamp><DateUtc dt:dt="string">2022-12-19T03:44:44Z</DateUtc></StartTime><FrequencyChanges><FrequencyChange><Frequency dt:dt="r8">2929853</Frequency><Timestamp dt:dt="r8">7031787886</Timestamp><Current dt:dt="r8">0</Current><DateUtc dt:dt="string">2022-12-19T03:44:44Z</DateUtc></FrequencyChange></FrequencyChanges></Clock>\n	Wisconsin-1175-2	59.957	1.0.0.546	1	-1557561557	Professional	2.0.10.356	2.0.10.356	12-19-2022	12/19/2022 3:44:44 AM	11:44:44	2.0.10.252	3				1	1	2	BlockProc	List3	1																	3	1	1							ShapeProc	List2									4	Button1.png	Button2.png	Button3.png	Button4.png	Redtriangle1.png							x	0							0	TrialProc	ShapeList	7	1	4				1	x	0	1	522889	0	x	9202	Shape
Wisconsin	1175	2	<?xml version="1.0"?>\n<Clock xmlns:dt="urn:schemas-microsoft-com:datatypes"><Description dt:dt="string">E-Prime Primary Realtime Clock</Description><StartTime><Timestamp dt:dt="int">0</Timestamp><DateUtc dt:dt="string">2022-12-19T03:44:44Z</DateUtc></StartTime><FrequencyChanges><FrequencyChange><Frequency dt:dt="r8">2929853</Frequency><Timestamp dt:dt="r8">7031787886</Timestamp><Current dt:dt="r8">0</Current><DateUtc dt:dt="string">2022-12-19T03:44:44Z</DateUtc></FrequencyChange></FrequencyChanges></Clock>\n	Wisconsin-1175-2	59.957	1.0.0.546	1	-1557561557	Professional	2.0.10.356	2.0.10.356	12-19-2022	12/19/2022 3:44:44 AM	11:44:44	2.0.10.252	3				1	1	2	BlockProc	List3	1																	3	1	1							ShapeProc	List2									5	Button1.png	Button2.png	Button3.png	Button4.png	Yellowstar4.png							v	0							0	TrialProc	ShapeList	10	1	5				1	v	0	1	534631	0	v	6595	Shape
Wisconsin	1175	2	<?xml version="1.0"?>\n<Clock xmlns:dt="urn:schemas-microsoft-com:datatypes"><Description dt:dt="string">E-Prime Primary Realtime Clock</Description><StartTime><Timestamp dt:dt="int">0</Timestamp><DateUtc dt:dt="string">2022-12-19T03:44:44Z</DateUtc></StartTime><FrequencyChanges><FrequencyChange><Frequency dt:dt="r8">2929853</Frequency><Timestamp dt:dt="r8">7031787886</Timestamp><Current dt:dt="r8">0</Current><DateUtc dt:dt="string">2022-12-19T03:44:44Z</DateUtc></FrequencyChange></FrequencyChanges></Clock>\n	Wisconsin-1175-2	59.957	1.0.0.546	1	-1557561557	Professional	2.0.10.356	2.0.10.356	12-19-2022	12/19/2022 3:44:44 AM	11:44:44	2.0.10.252	3				1	1	2	BlockProc	List3	1																	3	1	1							ShapeProc	List2									6	Button1.png	Button2.png	Button3.png	Button4.png	Bluecross4.png							c	0							0	TrialProc	ShapeList	2	1	6				1	c	0	1	543771	0	c	6271	Shape
Wisconsin	1175	2	<?xml version="1.0"?>\n<Clock xmlns:dt="urn:schemas-microsoft-com:datatypes"><Description dt:dt="string">E-Prime Primary Realtime Clock</Description><StartTime><Timestamp dt:dt="int">0</Timestamp><DateUtc dt:dt="string">2022-12-19T03:44:44Z</DateUtc></StartTime><FrequencyChanges><FrequencyChange><Frequency dt:dt="r8">2929853</Frequency><Timestamp dt:dt="r8">7031787886</Timestamp><Current dt:dt="r8">0</Current><DateUtc dt:dt="string">2022-12-19T03:44:44Z</DateUtc></FrequencyChange></FrequencyChanges></Clock>\n	Wisconsin-1175-2	59.957	1.0.0.546	1	-1557561557	Professional	2.0.10.356	2.0.10.356	12-19-2022	12/19/2022 3:44:44 AM	11:44:44	2.0.10.252	3				1	1	2	BlockProc	List3	1																	3	1	1							ShapeProc	List2									7	Button1.png	Button2.png	Button3.png	Button4.png	Greencross1.png							c	1							0	TrialProc	ShapeList	3	1	7				0	c	0	1	552577	10007		0	Shape
Wisconsin	1175	2	<?xml version="1.0"?>\n<Clock xmlns:dt="urn:schemas-microsoft-com:datatypes"><Description dt:dt="string">E-Prime Primary Realtime Clock</Description><StartTime><Timestamp dt:dt="int">0</Timestamp><DateUtc dt:dt="string">2022-12-19T03:44:44Z</DateUtc></StartTime><FrequencyChanges><FrequencyChange><Frequency dt:dt="r8">2929853</Frequency><Timestamp dt:dt="r8">7031787886</Timestamp><Current dt:dt="r8">0</Current><DateUtc dt:dt="string">2022-12-19T03:44:44Z</DateUtc></FrequencyChange></FrequencyChanges></Clock>\n	Wisconsin-1175-2	59.957	1.0.0.546	1	-1557561557	Professional	2.0.10.356	2.0.10.356	12-19-2022	12/19/2022 3:44:44 AM	11:44:44	2.0.10.252	3				1	1	2	BlockProc	List3	1																	3	1	1							ShapeProc	List2									8	Button1.png	Button2.png	Button3.png	Button4.png	yellowcircle3.png							z	0							0	TrialProc	ShapeList	8	1	8				1	z	0	1	565103	0	z	8057	Shape
Wisconsin	1175	2	<?xml version="1.0"?>\n<Clock xmlns:dt="urn:schemas-microsoft-com:datatypes"><Description dt:dt="string">E-Prime Primary Realtime Clock</Description><StartTime><Timestamp dt:dt="int">0</Timestamp><DateUtc dt:dt="string">2022-12-19T03:44:44Z</DateUtc></StartTime><FrequencyChanges><FrequencyChange><Frequency dt:dt="r8">2929853</Frequency><Timestamp dt:dt="r8">7031787886</Timestamp><Current dt:dt="r8">0</Current><DateUtc dt:dt="string">2022-12-19T03:44:44Z</DateUtc></FrequencyChange></FrequencyChanges></Clock>\n	Wisconsin-1175-2	59.957	1.0.0.546	1	-1557561557	Professional	2.0.10.356	2.0.10.356	12-19-2022	12/19/2022 3:44:44 AM	11:44:44	2.0.10.252	3				1	1	2	BlockProc	List3	1																	3	1	1							ShapeProc	List2									9	Button1.png	Button2.png	Button3.png	Button4.png	Bluecircle2.png							z	1							0	TrialProc	ShapeList	1	1	9				0	z	0	1	575694	0	x	6954	Shape
Wisconsin	1175	2	<?xml version="1.0"?>\n<Clock xmlns:dt="urn:schemas-microsoft-com:datatypes"><Description dt:dt="string">E-Prime Primary Realtime Clock</Description><StartTime><Timestamp dt:dt="int">0</Timestamp><DateUtc dt:dt="string">2022-12-19T03:44:44Z</DateUtc></StartTime><FrequencyChanges><FrequencyChange><Frequency dt:dt="r8">2929853</Frequency><Timestamp dt:dt="r8">7031787886</Timestamp><Current dt:dt="r8">0</Current><DateUtc dt:dt="string">2022-12-19T03:44:44Z</DateUtc></FrequencyChange></FrequencyChanges></Clock>\n	Wisconsin-1175-2	59.957	1.0.0.546	1	-1557561557	Professional	2.0.10.356	2.0.10.356	12-19-2022	12/19/2022 3:44:44 AM	11:44:44	2.0.10.252	3				1	1	2	BlockProc	List3	1																	3	1	1							ShapeProc	List2									10	Button1.png	Button2.png	Button3.png	Button4.png	Yellowstar1.png							v	1							0	TrialProc	ShapeList	9	1	10				0	v	0	1	585184	0	z	9655	Shape
Wisconsin	1175	2	<?xml version="1.0"?>\n<Clock xmlns:dt="urn:schemas-microsoft-com:datatypes"><Description dt:dt="string">E-Prime Primary Realtime Clock</Description><StartTime><Timestamp dt:dt="int">0</Timestamp><DateUtc dt:dt="string">2022-12-19T03:44:44Z</DateUtc></StartTime><FrequencyChanges><FrequencyChange><Frequency dt:dt="r8">2929853</Frequency><Timestamp dt:dt="r8">7031787886</Timestamp><Current dt:dt="r8">0</Current><DateUtc dt:dt="string">2022-12-19T03:44:44Z</DateUtc></FrequencyChange></FrequencyChanges></Clock>\n	Wisconsin-1175-2	59.957	1.0.0.546	1	-1557561557	Professional	2.0.10.356	2.0.10.356	12-19-2022	12/19/2022 3:44:44 AM	11:44:44	2.0.10.252	3				1	1	2	BlockProc	List3	2																	1	1	2							ColorProc	List2									1	BUTTON1.png	BUTTON2.PNG	BUTTON3.png	BUTTON4.png	redcircle3.png	8	1	1				c	0							0	TrialProc	ColorList							1	c	0	0	597376	0	c	4055	color
Wisconsin	1175	2	<?xml version="1.0"?>\n<Clock xmlns:dt="urn:schemas-microsoft-com:datatypes"><Description dt:dt="string">E-Prime Primary Realtime Clock</Description><StartTime><Timestamp dt:dt="int">0</Timestamp><DateUtc dt:dt="string">2022-12-19T03:44:44Z</DateUtc></StartTime><FrequencyChanges><FrequencyChange><Frequency dt:dt="r8">2929853</Frequency><Timestamp dt:dt="r8">7031787886</Timestamp><Current dt:dt="r8">0</Current><DateUtc dt:dt="string">2022-12-19T03:44:44Z</DateUtc></FrequencyChange></FrequencyChanges></Clock>\n	Wisconsin-1175-2	59.957	1.0.0.546	1	-1557561557	Professional	2.0.10.356	2.0.10.356	12-19-2022	12/19/2022 3:44:44 AM	11:44:44	2.0.10.252	3				1	1	2	BlockProc	List3	2																	1	1	2							ColorProc	List2									2	BUTTON1.png	BUTTON2.PNG	BUTTON3.png	BUTTON4.png	greenstar2.png	5	1	2				z	1							0	TrialProc	ColorList							0	z	0	0	603964	0	x	3610	color
Wisconsin	1175	2	<?xml version="1.0"?>\n<Clock xmlns:dt="urn:schemas-microsoft-com:datatypes"><Description dt:dt="string">E-Prime Primary Realtime Clock</Description><StartTime><Timestamp dt:dt="int">0</Timestamp><DateUtc dt:dt="string">2022-12-19T03:44:44Z</DateUtc></StartTime><FrequencyChanges><FrequencyChange><Frequency dt:dt="r8">2929853</Frequency><Timestamp dt:dt="r8">7031787886</Timestamp><Current dt:dt="r8">0</Current><DateUtc dt:dt="string">2022-12-19T03:44:44Z</DateUtc></FrequencyChange></FrequencyChanges></Clock>\n	Wisconsin-1175-2	59.957	1.0.0.546	1	-1557561557	Professional	2.0.10.356	2.0.10.356	12-19-2022	12/19/2022 3:44:44 AM	11:44:44	2.0.10.252	3				1	1	2	BlockProc	List3	2																	1	1	2							ColorProc	List2									3	BUTTON1.png	BUTTON2.PNG	BUTTON3.png	BUTTON4.png	greentriangle1.png	6	1	3				z	0							0	TrialProc	ColorList							1	z	0	1	610119	0	z	5391	color
Wisconsin	1175	2	<?xml version="1.0"?>\n<Clock xmlns:dt="urn:schemas-microsoft-com:datatypes"><Description dt:dt="string">E-Prime Primary Realtime Clock</Description><StartTime><Timestamp dt:dt="int">0</Timestamp><DateUtc dt:dt="string">2022-12-19T03:44:44Z</DateUtc></StartTime><FrequencyChanges><FrequencyChange><Frequency dt:dt="r8">2929853</Frequency><Timestamp dt:dt="r8">7031787886</Timestamp><Current dt:dt="r8">0</Current><DateUtc dt:dt="string">2022-12-19T03:44:44Z</DateUtc></FrequencyChange></FrequencyChanges></Clock>\n	Wisconsin-1175-2	59.957	1.0.0.546	1	-1557561557	Professional	2.0.10.356	2.0.10.356	12-19-2022	12/19/2022 3:44:44 AM	11:44:44	2.0.10.252	3				1	1	2	BlockProc	List3	2																	1	1	2							ColorProc	List2									4	BUTTON1.png	BUTTON2.PNG	BUTTON3.png	BUTTON4.png	greentriangle3.png	7	1	4				z	1							0	TrialProc	ColorList							0	z	0	0	618041	0	c	4412	color
Wisconsin	1175	2	<?xml version="1.0"?>\n<Clock xmlns:dt="urn:schemas-microsoft-com:datatypes"><Description dt:dt="string">E-Prime Primary Realtime Clock</Description><StartTime><Timestamp dt:dt="int">0</Timestamp><DateUtc dt:dt="string">2022-12-19T03:44:44Z</DateUtc></StartTime><FrequencyChanges><FrequencyChange><Frequency dt:dt="r8">2929853</Frequency><Timestamp dt:dt="r8">7031787886</Timestamp><Current dt:dt="r8">0</Current><DateUtc dt:dt="string">2022-12-19T03:44:44Z</DateUtc></FrequencyChange></FrequencyChanges></Clock>\n	Wisconsin-1175-2	59.957	1.0.0.546	1	-1557561557	Professional	2.0.10.356	2.0.10.356	12-19-2022	12/19/2022 3:44:44 AM	11:44:44	2.0.10.252	3				1	1	2	BlockProc	List3	2																	1	1	2							ColorProc	List2									5	BUTTON1.png	BUTTON2.PNG	BUTTON3.png	BUTTON4.png	yellowcircle1.png	9	1	5				x	0							0	TrialProc	ColorList							1	x	0	0	624996	0	x	6065	color
Wisconsin	1175	2	<?xml version="1.0"?>\n<Clock xmlns:dt="urn:schemas-microsoft-com:datatypes"><Description dt:dt="string">E-Prime Primary Realtime Clock</Description><StartTime><Timestamp dt:dt="int">0</Timestamp><DateUtc dt:dt="string">2022-12-19T03:44:44Z</DateUtc></StartTime><FrequencyChanges><FrequencyChange><Frequency dt:dt="r8">2929853</Frequency><Timestamp dt:dt="r8">7031787886</Timestamp><Current dt:dt="r8">0</Current><DateUtc dt:dt="string">2022-12-19T03:44:44Z</DateUtc></FrequencyChange></FrequencyChanges></Clock>\n	Wisconsin-1175-2	59.957	1.0.0.546	1	-1557561557	Professional	2.0.10.356	2.0.10.356	12-19-2022	12/19/2022 3:44:44 AM	11:44:44	2.0.10.252	3				1	1	2	BlockProc	List3	2																	1	1	2							ColorProc	List2									6	BUTTON1.png	BUTTON2.PNG	BUTTON3.png	BUTTON4.png	greencircle3.png	4	1	6				z	0							0	TrialProc	ColorList							1	z	0	1	633603	0	z	4802	color
Wisconsin	1175	2	<?xml version="1.0"?>\n<Clock xmlns:dt="urn:schemas-microsoft-com:datatypes"><Description dt:dt="string">E-Prime Primary Realtime Clock</Description><StartTime><Timestamp dt:dt="int">0</Timestamp><DateUtc dt:dt="string">2022-12-19T03:44:44Z</DateUtc></StartTime><FrequencyChanges><FrequencyChange><Frequency dt:dt="r8">2929853</Frequency><Timestamp dt:dt="r8">7031787886</Timestamp><Current dt:dt="r8">0</Current><DateUtc dt:dt="string">2022-12-19T03:44:44Z</DateUtc></FrequencyChange></FrequencyChanges></Clock>\n	Wisconsin-1175-2	59.957	1.0.0.546	1	-1557561557	Professional	2.0.10.356	2.0.10.356	12-19-2022	12/19/2022 3:44:44 AM	11:44:44	2.0.10.252	3				1	1	2	BlockProc	List3	2																	1	1	2							ColorProc	List2									7	BUTTON1.png	BUTTON2.PNG	BUTTON3.png	BUTTON4.png	bluecircle1.png	1	1	7				v	0							0	TrialProc	ColorList							1	v	0	0	640941	0	v	5111	color
Wisconsin	1175	2	<?xml version="1.0"?>\n<Clock xmlns:dt="urn:schemas-microsoft-com:datatypes"><Description dt:dt="string">E-Prime Primary Realtime Clock</Description><StartTime><Timestamp dt:dt="int">0</Timestamp><DateUtc dt:dt="string">2022-12-19T03:44:44Z</DateUtc></StartTime><FrequencyChanges><FrequencyChange><Frequency dt:dt="r8">2929853</Frequency><Timestamp dt:dt="r8">7031787886</Timestamp><Current dt:dt="r8">0</Current><DateUtc dt:dt="string">2022-12-19T03:44:44Z</DateUtc></FrequencyChange></FrequencyChanges></Clock>\n	Wisconsin-1175-2	59.957	1.0.0.546	1	-1557561557	Professional	2.0.10.356	2.0.10.356	12-19-2022	12/19/2022 3:44:44 AM	11:44:44	2.0.10.252	3				1	1	2	BlockProc	List3	2																	1	1	2							ColorProc	List2									8	BUTTON1.png	BUTTON2.PNG	BUTTON3.png	BUTTON4.png	yellowstar3.png	10	1	8				x	0							0	TrialProc	ColorList							1	x	0	1	648597	0	x	6687	color
Wisconsin	1175	2	<?xml version="1.0"?>\n<Clock xmlns:dt="urn:schemas-microsoft-com:datatypes"><Description dt:dt="string">E-Prime Primary Realtime Clock</Description><StartTime><Timestamp dt:dt="int">0</Timestamp><DateUtc dt:dt="string">2022-12-19T03:44:44Z</DateUtc></StartTime><FrequencyChanges><FrequencyChange><Frequency dt:dt="r8">2929853</Frequency><Timestamp dt:dt="r8">7031787886</Timestamp><Current dt:dt="r8">0</Current><DateUtc dt:dt="string">2022-12-19T03:44:44Z</DateUtc></FrequencyChange></FrequencyChanges></Clock>\n	Wisconsin-1175-2	59.957	1.0.0.546	1	-1557561557	Professional	2.0.10.356	2.0.10.356	12-19-2022	12/19/2022 3:44:44 AM	11:44:44	2.0.10.252	3				1	1	2	BlockProc	List3	2																	1	1	2							ColorProc	List2									9	BUTTON1.png	BUTTON2.PNG	BUTTON3.png	BUTTON4.png	bluetriangle3.png	3	1	9				v	1							0	TrialProc	ColorList							0	v	0	1	657820	10007		0	color
Wisconsin	1175	2	<?xml version="1.0"?>\n<Clock xmlns:dt="urn:schemas-microsoft-com:datatypes"><Description dt:dt="string">E-Prime Primary Realtime Clock</Description><StartTime><Timestamp dt:dt="int">0</Timestamp><DateUtc dt:dt="string">2022-12-19T03:44:44Z</DateUtc></StartTime><FrequencyChanges><FrequencyChange><Frequency dt:dt="r8">2929853</Frequency><Timestamp dt:dt="r8">7031787886</Timestamp><Current dt:dt="r8">0</Current><DateUtc dt:dt="string">2022-12-19T03:44:44Z</DateUtc></FrequencyChange></FrequencyChanges></Clock>\n	Wisconsin-1175-2	59.957	1.0.0.546	1	-1557561557	Professional	2.0.10.356	2.0.10.356	12-19-2022	12/19/2022 3:44:44 AM	11:44:44	2.0.10.252	3				1	1	2	BlockProc	List3	2																	1	1	2							ColorProc	List2									10	BUTTON1.png	BUTTON2.PNG	BUTTON3.png	BUTTON4.png	bluecross2.png	2	1	10				v	1							0	TrialProc	ColorList							0	v	0	1	670346	0	c	4937	color
Wisconsin	1175	2	<?xml version="1.0"?>\n<Clock xmlns:dt="urn:schemas-microsoft-com:datatypes"><Description dt:dt="string">E-Prime Primary Realtime Clock</Description><StartTime><Timestamp dt:dt="int">0</Timestamp><DateUtc dt:dt="string">2022-12-19T03:44:44Z</DateUtc></StartTime><FrequencyChanges><FrequencyChange><Frequency dt:dt="r8">2929853</Frequency><Timestamp dt:dt="r8">7031787886</Timestamp><Current dt:dt="r8">0</Current><DateUtc dt:dt="string">2022-12-19T03:44:44Z</DateUtc></FrequencyChange></FrequencyChanges></Clock>\n	Wisconsin-1175-2	59.957	1.0.0.546	1	-1557561557	Professional	2.0.10.356	2.0.10.356	12-19-2022	12/19/2022 3:44:44 AM	11:44:44	2.0.10.252	3				1	1	2	BlockProc	List3	3																	2	1	3							NumberProc	List2									1	Button1.png	Button2.png	Button3.png	Button4.png	Bluetriangle1.png							v	1	3	1	1				0	TrialProc	NumberList							0	v	0	1	677818	0	x	4152	number
Wisconsin	1175	2	<?xml version="1.0"?>\n<Clock xmlns:dt="urn:schemas-microsoft-com:datatypes"><Description dt:dt="string">E-Prime Primary Realtime Clock</Description><StartTime><Timestamp dt:dt="int">0</Timestamp><DateUtc dt:dt="string">2022-12-19T03:44:44Z</DateUtc></StartTime><FrequencyChanges><FrequencyChange><Frequency dt:dt="r8">2929853</Frequency><Timestamp dt:dt="r8">7031787886</Timestamp><Current dt:dt="r8">0</Current><DateUtc dt:dt="string">2022-12-19T03:44:44Z</DateUtc></FrequencyChange></FrequencyChanges></Clock>\n	Wisconsin-1175-2	59.957	1.0.0.546	1	-1557561557	Professional	2.0.10.356	2.0.10.356	12-19-2022	12/19/2022 3:44:44 AM	11:44:44	2.0.10.252	3				1	1	2	BlockProc	List3	3																	2	1	3							NumberProc	List2									2	Button1.png	Button2.png	Button3.png	Button4.png	Redtriangle4.png							x	1	8	1	2				0	TrialProc	NumberList							0	x	0	1	684506	0	v	4744	number
Wisconsin	1175	2	<?xml version="1.0"?>\n<Clock xmlns:dt="urn:schemas-microsoft-com:datatypes"><Description dt:dt="string">E-Prime Primary Realtime Clock</Description><StartTime><Timestamp dt:dt="int">0</Timestamp><DateUtc dt:dt="string">2022-12-19T03:44:44Z</DateUtc></StartTime><FrequencyChanges><FrequencyChange><Frequency dt:dt="r8">2929853</Frequency><Timestamp dt:dt="r8">7031787886</Timestamp><Current dt:dt="r8">0</Current><DateUtc dt:dt="string">2022-12-19T03:44:44Z</DateUtc></FrequencyChange></FrequencyChanges></Clock>\n	Wisconsin-1175-2	59.957	1.0.0.546	1	-1557561557	Professional	2.0.10.356	2.0.10.356	12-19-2022	12/19/2022 3:44:44 AM	11:44:44	2.0.10.252	3				1	1	2	BlockProc	List3	3																	2	1	3							NumberProc	List2									3	Button1.png	Button2.png	Button3.png	Button4.png	Greencross3.png							c	0	5	1	3				0	TrialProc	NumberList							1	c	0	1	691778	0	c	3375	number
Wisconsin	1175	2	<?xml version="1.0"?>\n<Clock xmlns:dt="urn:schemas-microsoft-com:datatypes"><Description dt:dt="string">E-Prime Primary Realtime Clock</Description><StartTime><Timestamp dt:dt="int">0</Timestamp><DateUtc dt:dt="string">2022-12-19T03:44:44Z</DateUtc></StartTime><FrequencyChanges><FrequencyChange><Frequency dt:dt="r8">2929853</Frequency><Timestamp dt:dt="r8">7031787886</Timestamp><Current dt:dt="r8">0</Current><DateUtc dt:dt="string">2022-12-19T03:44:44Z</DateUtc></FrequencyChange></FrequencyChanges></Clock>\n	Wisconsin-1175-2	59.957	1.0.0.546	1	-1557561557	Professional	2.0.10.356	2.0.10.356	12-19-2022	12/19/2022 3:44:44 AM	11:44:44	2.0.10.252	3				1	1	2	BlockProc	List3	3																	2	1	3							NumberProc	List2									4	Button1.png	Button2.png	Button3.png	Button4.png	Yellowcross3.png							c	0	10	1	4				0	TrialProc	NumberList							1	c	0	1	697699	0	c	7902	number
Wisconsin	1175	2	<?xml version="1.0"?>\n<Clock xmlns:dt="urn:schemas-microsoft-com:datatypes"><Description dt:dt="string">E-Prime Primary Realtime Clock</Description><StartTime><Timestamp dt:dt="int">0</Timestamp><DateUtc dt:dt="string">2022-12-19T03:44:44Z</DateUtc></StartTime><FrequencyChanges><FrequencyChange><Frequency dt:dt="r8">2929853</Frequency><Timestamp dt:dt="r8">7031787886</Timestamp><Current dt:dt="r8">0</Current><DateUtc dt:dt="string">2022-12-19T03:44:44Z</DateUtc></FrequencyChange></FrequencyChanges></Clock>\n	Wisconsin-1175-2	59.957	1.0.0.546	1	-1557561557	Professional	2.0.10.356	2.0.10.356	12-19-2022	12/19/2022 3:44:44 AM	11:44:44	2.0.10.252	3				1	1	2	BlockProc	List3	3																	2	1	3							NumberProc	List2									5	Button1.png	Button2.png	Button3.png	Button4.png	Redcircle4.png							x	1	6	1	5				0	TrialProc	NumberList							0	x	0	1	708140	0	v	3556	number
Wisconsin	1175	2	<?xml version="1.0"?>\n<Clock xmlns:dt="urn:schemas-microsoft-com:datatypes"><Description dt:dt="string">E-Prime Primary Realtime Clock</Description><StartTime><Timestamp dt:dt="int">0</Timestamp><DateUtc dt:dt="string">2022-12-19T03:44:44Z</DateUtc></StartTime><FrequencyChanges><FrequencyChange><Frequency dt:dt="r8">2929853</Frequency><Timestamp dt:dt="r8">7031787886</Timestamp><Current dt:dt="r8">0</Current><DateUtc dt:dt="string">2022-12-19T03:44:44Z</DateUtc></FrequencyChange></FrequencyChanges></Clock>\n	Wisconsin-1175-2	59.957	1.0.0.546	1	-1557561557	Professional	2.0.10.356	2.0.10.356	12-19-2022	12/19/2022 3:44:44 AM	11:44:44	2.0.10.252	3				1	1	2	BlockProc	List3	3																	2	1	3							NumberProc	List2									6	Button1.png	Button2.png	Button3.png	Button4.png	Bluecircle4.png							x	1	1	1	6				0	TrialProc	NumberList							0	x	0	1	714228	0	v	3932	number
Wisconsin	1175	2	<?xml version="1.0"?>\n<Clock xmlns:dt="urn:schemas-microsoft-com:datatypes"><Description dt:dt="string">E-Prime Primary Realtime Clock</Description><StartTime><Timestamp dt:dt="int">0</Timestamp><DateUtc dt:dt="string">2022-12-19T03:44:44Z</DateUtc></StartTime><FrequencyChanges><FrequencyChange><Frequency dt:dt="r8">2929853</Frequency><Timestamp dt:dt="r8">7031787886</Timestamp><Current dt:dt="r8">0</Current><DateUtc dt:dt="string">2022-12-19T03:44:44Z</DateUtc></FrequencyChange></FrequencyChanges></Clock>\n	Wisconsin-1175-2	59.957	1.0.0.546	1	-1557561557	Professional	2.0.10.356	2.0.10.356	12-19-2022	12/19/2022 3:44:44 AM	11:44:44	2.0.10.252	3				1	1	2	BlockProc	List3	3																	2	1	3							NumberProc	List2									7	Button1.png	Button2.png	Button3.png	Button4.png	Redstar2.png							z	1	7	1	7				0	TrialProc	NumberList							0	z	0	1	720699	0	x	4213	number
Wisconsin	1175	2	<?xml version="1.0"?>\n<Clock xmlns:dt="urn:schemas-microsoft-com:datatypes"><Description dt:dt="string">E-Prime Primary Realtime Clock</Description><StartTime><Timestamp dt:dt="int">0</Timestamp><DateUtc dt:dt="string">2022-12-19T03:44:44Z</DateUtc></StartTime><FrequencyChanges><FrequencyChange><Frequency dt:dt="r8">2929853</Frequency><Timestamp dt:dt="r8">7031787886</Timestamp><Current dt:dt="r8">0</Current><DateUtc dt:dt="string">2022-12-19T03:44:44Z</DateUtc></FrequencyChange></FrequencyChanges></Clock>\n	Wisconsin-1175-2	59.957	1.0.0.546	1	-1557561557	Professional	2.0.10.356	2.0.10.356	12-19-2022	12/19/2022 3:44:44 AM	11:44:44	2.0.10.252	3				1	1	2	BlockProc	List3	3																	2	1	3							NumberProc	List2									8	Button1.png	Button2.png	Button3.png	Button4.png	Bluestar2.png							z	1	2	1	8				0	TrialProc	NumberList							0	z	0	1	727454	0	c	6545	number
Wisconsin	1175	2	<?xml version="1.0"?>\n<Clock xmlns:dt="urn:schemas-microsoft-com:datatypes"><Description dt:dt="string">E-Prime Primary Realtime Clock</Description><StartTime><Timestamp dt:dt="int">0</Timestamp><DateUtc dt:dt="string">2022-12-19T03:44:44Z</DateUtc></StartTime><FrequencyChanges><FrequencyChange><Frequency dt:dt="r8">2929853</Frequency><Timestamp dt:dt="r8">7031787886</Timestamp><Current dt:dt="r8">0</Current><DateUtc dt:dt="string">2022-12-19T03:44:44Z</DateUtc></FrequencyChange></FrequencyChanges></Clock>\n	Wisconsin-1175-2	59.957	1.0.0.546	1	-1557561557	Professional	2.0.10.356	2.0.10.356	12-19-2022	12/19/2022 3:44:44 AM	11:44:44	2.0.10.252	3				1	1	2	BlockProc	List3	3																	2	1	3							NumberProc	List2									9	Button1.png	Button2.png	Button3.png	Button4.png	Yellowcross1.png							v	1	9	1	9				0	TrialProc	NumberList							0	v	0	0	736527	10007		0	number
Wisconsin	1175	2	<?xml version="1.0"?>\n<Clock xmlns:dt="urn:schemas-microsoft-com:datatypes"><Description dt:dt="string">E-Prime Primary Realtime Clock</Description><StartTime><Timestamp dt:dt="int">0</Timestamp><DateUtc dt:dt="string">2022-12-19T03:44:44Z</DateUtc></StartTime><FrequencyChanges><FrequencyChange><Frequency dt:dt="r8">2929853</Frequency><Timestamp dt:dt="r8">7031787886</Timestamp><Current dt:dt="r8">0</Current><DateUtc dt:dt="string">2022-12-19T03:44:44Z</DateUtc></FrequencyChange></FrequencyChanges></Clock>\n	Wisconsin-1175-2	59.957	1.0.0.546	1	-1557561557	Professional	2.0.10.356	2.0.10.356	12-19-2022	12/19/2022 3:44:44 AM	11:44:44	2.0.10.252	3				1	1	2	BlockProc	List3	3																	2	1	3							NumberProc	List2									10	Button1.png	Button2.png	Button3.png	Button4.png	Greencircle4.png							x	1	4	1	10				0	TrialProc	NumberList							0	x	0	1	749053	10007		0	number
