ExperimentName	Subject	Session	Clock.Information	DataFile.Basename	Display.RefreshRate	ExperimentVersion	Group	RandomSeed	RuntimeCapabilities	RuntimeVersion	RuntimeVersionExpected	SessionDate	SessionStartDateTimeUtc	SessionTime	Slide1.DEVICE	Slide2.DEVICE	Slide3.DEVICE	StudioVersion	Welcome.DEVICE	Block	GetReady.DEVICE	List1	List1.Cycle	List1.Sample	List2	List2.Cycle	List2.Sample	PracticeReady.DEVICE	Procedure[Block]	Running[Block]	Trial	CardIMG1[Trial]	CardIMG2[Trial]	CardIMG3[Trial]	CardIMG4[Trial]	CardStim[Trial]	Category	CorrectAnswer[Trial]	List3	List3.Cycle	List3.Sample	List4	List4.Cycle	List4.Sample	PracticeList	PracticeList.Cycle	PracticeList.Sample	Procedure[Trial]	Running[Trial]	Slide4.ACC	Slide4.CRESP	Slide4.DEVICE	Slide4.DurationError	Slide4.OnsetDelay	Slide4.OnsetTime	Slide4.OnsetToOnsetTime	Slide4.RESP	Slide4.RT	Slide4.RTTime	SubTrial	CardIMG1[SubTrial]	CardIMG2[SubTrial]	CardIMG3[SubTrial]	CardIMG4[SubTrial]	CardStim[SubTrial]	ColorList	ColorList.Cycle	ColorList.Sample	ColorList2	ColorList2.Cycle	ColorList2.Sample	CorrectAnswer[SubTrial]	NonPerseverativeError	NumberList	NumberList.Cycle	NumberList.Sample	NumberList2	NumberList2.Cycle	NumberList2.Sample	PerseverativeError	Procedure[SubTrial]	Running[SubTrial]	ShapeList	ShapeList.Cycle	ShapeList.Sample	ShapeList2	ShapeList2.Cycle	ShapeList2.Sample	Slide5.ACC	Slide5.CRESP	Slide5.DEVICE	Slide5.DurationError	Slide5.OnsetDelay	Slide5.OnsetTime	Slide5.OnsetToOnsetTime	Slide5.RESP	Slide5.RT	Slide5.RTTime	TrialType
Wisconsin	1151	4	<?xml version="1.0"?>\n<Clock xmlns:dt="urn:schemas-microsoft-com:datatypes"><Description dt:dt="string">E-Prime Primary Realtime Clock</Description><StartTime><Timestamp dt:dt="int">0</Timestamp><DateUtc dt:dt="string">2023-01-07T04:14:11Z</DateUtc></StartTime><FrequencyChanges><FrequencyChange><Frequency dt:dt="r8">10000000</Frequency><Timestamp dt:dt="r8">18080983992042</Timestamp><Current dt:dt="r8">0</Current><DateUtc dt:dt="string">2023-01-07T04:14:11Z</DateUtc></FrequencyChange></FrequencyChanges></Clock>\n	Wisconsin-1151-4	60.000	1.0.0.253	1	-825708126	Full	3.0.3.80	3.0.3.80	01-07-2023	1/7/2023 4:14:12 AM	12:14:12	Keyboard	Keyboard	Keyboard	3.0.3.82	Keyboard	1	Keyboard	1	1	1				Keyboard	Practiceploc	List1	1	Button1.png	Button2.png	Button3.png	Button4.png	Greencircle3.png	顏色	{button1}							1	1	1	PracticeTrialProc	PracticeList	1	{button1}	Button	1	50	76090	0	{Button1}	1919	78009																																								
Wisconsin	1151	4	<?xml version="1.0"?>\n<Clock xmlns:dt="urn:schemas-microsoft-com:datatypes"><Description dt:dt="string">E-Prime Primary Realtime Clock</Description><StartTime><Timestamp dt:dt="int">0</Timestamp><DateUtc dt:dt="string">2023-01-07T04:14:11Z</DateUtc></StartTime><FrequencyChanges><FrequencyChange><Frequency dt:dt="r8">10000000</Frequency><Timestamp dt:dt="r8">18080983992042</Timestamp><Current dt:dt="r8">0</Current><DateUtc dt:dt="string">2023-01-07T04:14:11Z</DateUtc></FrequencyChange></FrequencyChanges></Clock>\n	Wisconsin-1151-4	60.000	1.0.0.253	1	-825708126	Full	3.0.3.80	3.0.3.80	01-07-2023	1/7/2023 4:14:12 AM	12:14:12	Keyboard	Keyboard	Keyboard	3.0.3.82	Keyboard	1	Keyboard	1	1	1				Keyboard	Practiceploc	List1	2	Button1.png	Button2.png	Button3.png	Button4.png	Redstar2.png	顏色	{button3}							2	1	2	PracticeTrialProc	PracticeList	1	{button3}	Button	2	33	80622	0	{Button3}	1651	82273																																								
Wisconsin	1151	4	<?xml version="1.0"?>\n<Clock xmlns:dt="urn:schemas-microsoft-com:datatypes"><Description dt:dt="string">E-Prime Primary Realtime Clock</Description><StartTime><Timestamp dt:dt="int">0</Timestamp><DateUtc dt:dt="string">2023-01-07T04:14:11Z</DateUtc></StartTime><FrequencyChanges><FrequencyChange><Frequency dt:dt="r8">10000000</Frequency><Timestamp dt:dt="r8">18080983992042</Timestamp><Current dt:dt="r8">0</Current><DateUtc dt:dt="string">2023-01-07T04:14:11Z</DateUtc></FrequencyChange></FrequencyChanges></Clock>\n	Wisconsin-1151-4	60.000	1.0.0.253	1	-825708126	Full	3.0.3.80	3.0.3.80	01-07-2023	1/7/2023 4:14:12 AM	12:14:12	Keyboard	Keyboard	Keyboard	3.0.3.82	Keyboard	1	Keyboard	1	1	1				Keyboard	Practiceploc	List1	3	Button1.png	Button2.png	Button3.png	Button4.png	Bluetriangle1.png	形狀	{button2}							3	1	3	PracticeTrialProc	PracticeList	1	{button2}	Button	10	33	84854	0	{Button2}	2099	86953																																								
Wisconsin	1151	4	<?xml version="1.0"?>\n<Clock xmlns:dt="urn:schemas-microsoft-com:datatypes"><Description dt:dt="string">E-Prime Primary Realtime Clock</Description><StartTime><Timestamp dt:dt="int">0</Timestamp><DateUtc dt:dt="string">2023-01-07T04:14:11Z</DateUtc></StartTime><FrequencyChanges><FrequencyChange><Frequency dt:dt="r8">10000000</Frequency><Timestamp dt:dt="r8">18080983992042</Timestamp><Current dt:dt="r8">0</Current><DateUtc dt:dt="string">2023-01-07T04:14:11Z</DateUtc></FrequencyChange></FrequencyChanges></Clock>\n	Wisconsin-1151-4	60.000	1.0.0.253	1	-825708126	Full	3.0.3.80	3.0.3.80	01-07-2023	1/7/2023 4:14:12 AM	12:14:12	Keyboard	Keyboard	Keyboard	3.0.3.82	Keyboard	1	Keyboard	1	1	1				Keyboard	Practiceploc	List1	4	Button1.png	Button2.png	Button3.png	Button4.png	greenstar2.png	形狀	{Button4}							4	1	4	PracticeTrialProc	PracticeList	1	{Button4}	Button	10	33	89536	0	{Button4}	2568	92104																																								
Wisconsin	1151	4	<?xml version="1.0"?>\n<Clock xmlns:dt="urn:schemas-microsoft-com:datatypes"><Description dt:dt="string">E-Prime Primary Realtime Clock</Description><StartTime><Timestamp dt:dt="int">0</Timestamp><DateUtc dt:dt="string">2023-01-07T04:14:11Z</DateUtc></StartTime><FrequencyChanges><FrequencyChange><Frequency dt:dt="r8">10000000</Frequency><Timestamp dt:dt="r8">18080983992042</Timestamp><Current dt:dt="r8">0</Current><DateUtc dt:dt="string">2023-01-07T04:14:11Z</DateUtc></FrequencyChange></FrequencyChanges></Clock>\n	Wisconsin-1151-4	60.000	1.0.0.253	1	-825708126	Full	3.0.3.80	3.0.3.80	01-07-2023	1/7/2023 4:14:12 AM	12:14:12	Keyboard	Keyboard	Keyboard	3.0.3.82	Keyboard	1	Keyboard	1	1	1				Keyboard	Practiceploc	List1	5	Button1.png	Button2.png	Button3.png	Button4.png	BlueCross4.png	圖案數目	{Button2}							5	1	5	PracticeTrialProc	PracticeList	1	{Button2}	Button	2	33	94685	0	{Button2}	1804	96489																																								
Wisconsin	1151	4	<?xml version="1.0"?>\n<Clock xmlns:dt="urn:schemas-microsoft-com:datatypes"><Description dt:dt="string">E-Prime Primary Realtime Clock</Description><StartTime><Timestamp dt:dt="int">0</Timestamp><DateUtc dt:dt="string">2023-01-07T04:14:11Z</DateUtc></StartTime><FrequencyChanges><FrequencyChange><Frequency dt:dt="r8">10000000</Frequency><Timestamp dt:dt="r8">18080983992042</Timestamp><Current dt:dt="r8">0</Current><DateUtc dt:dt="string">2023-01-07T04:14:11Z</DateUtc></FrequencyChange></FrequencyChanges></Clock>\n	Wisconsin-1151-4	60.000	1.0.0.253	1	-825708126	Full	3.0.3.80	3.0.3.80	01-07-2023	1/7/2023 4:14:12 AM	12:14:12	Keyboard	Keyboard	Keyboard	3.0.3.82	Keyboard	1	Keyboard	1	1	1				Keyboard	Practiceploc	List1	6	Button1.png	Button2.png	Button3.png	Button4.png	yellowcircle2.png	圖案數目	{Button1}							6	1	6	PracticeTrialProc	PracticeList	1	{Button1}	Button	10	33	99067	0	{Button1}	854	99921																																								
Wisconsin	1151	4	<?xml version="1.0"?>\n<Clock xmlns:dt="urn:schemas-microsoft-com:datatypes"><Description dt:dt="string">E-Prime Primary Realtime Clock</Description><StartTime><Timestamp dt:dt="int">0</Timestamp><DateUtc dt:dt="string">2023-01-07T04:14:11Z</DateUtc></StartTime><FrequencyChanges><FrequencyChange><Frequency dt:dt="r8">10000000</Frequency><Timestamp dt:dt="r8">18080983992042</Timestamp><Current dt:dt="r8">0</Current><DateUtc dt:dt="string">2023-01-07T04:14:11Z</DateUtc></FrequencyChange></FrequencyChanges></Clock>\n	Wisconsin-1151-4	60.000	1.0.0.253	1	-825708126	Full	3.0.3.80	3.0.3.80	01-07-2023	1/7/2023 4:14:12 AM	12:14:12	Keyboard	Keyboard	Keyboard	3.0.3.82	Keyboard	2					1	1	1		BlockProc	List2	1								3	1	1							NumberProc	List3											1	Button1.png	Button2.png	Button3.png	Button4.png	Bluecircle4.png							{Button2}	0	1	1	1				0	TrialProc	NumberList							1	{Button2}	Button	2	33	111814	0	{Button2}	1235	113049	number
Wisconsin	1151	4	<?xml version="1.0"?>\n<Clock xmlns:dt="urn:schemas-microsoft-com:datatypes"><Description dt:dt="string">E-Prime Primary Realtime Clock</Description><StartTime><Timestamp dt:dt="int">0</Timestamp><DateUtc dt:dt="string">2023-01-07T04:14:11Z</DateUtc></StartTime><FrequencyChanges><FrequencyChange><Frequency dt:dt="r8">10000000</Frequency><Timestamp dt:dt="r8">18080983992042</Timestamp><Current dt:dt="r8">0</Current><DateUtc dt:dt="string">2023-01-07T04:14:11Z</DateUtc></FrequencyChange></FrequencyChanges></Clock>\n	Wisconsin-1151-4	60.000	1.0.0.253	1	-825708126	Full	3.0.3.80	3.0.3.80	01-07-2023	1/7/2023 4:14:12 AM	12:14:12	Keyboard	Keyboard	Keyboard	3.0.3.82	Keyboard	2					1	1	1		BlockProc	List2	1								3	1	1							NumberProc	List3											2	Button1.png	Button2.png	Button3.png	Button4.png	Yellowcross1.png							{Button4}	0	9	1	2				0	TrialProc	NumberList							1	{Button4}	Button	9	33	115630	0	{Button4}	1354	116984	number
Wisconsin	1151	4	<?xml version="1.0"?>\n<Clock xmlns:dt="urn:schemas-microsoft-com:datatypes"><Description dt:dt="string">E-Prime Primary Realtime Clock</Description><StartTime><Timestamp dt:dt="int">0</Timestamp><DateUtc dt:dt="string">2023-01-07T04:14:11Z</DateUtc></StartTime><FrequencyChanges><FrequencyChange><Frequency dt:dt="r8">10000000</Frequency><Timestamp dt:dt="r8">18080983992042</Timestamp><Current dt:dt="r8">0</Current><DateUtc dt:dt="string">2023-01-07T04:14:11Z</DateUtc></FrequencyChange></FrequencyChanges></Clock>\n	Wisconsin-1151-4	60.000	1.0.0.253	1	-825708126	Full	3.0.3.80	3.0.3.80	01-07-2023	1/7/2023 4:14:12 AM	12:14:12	Keyboard	Keyboard	Keyboard	3.0.3.82	Keyboard	2					1	1	1		BlockProc	List2	1								3	1	1							NumberProc	List3											3	Button1.png	Button2.png	Button3.png	Button4.png	Yellowcross3.png							{Button3}	0	10	1	3				0	TrialProc	NumberList							1	{Button3}	Button	2	33	119562	0	{Button3}	1591	121153	number
Wisconsin	1151	4	<?xml version="1.0"?>\n<Clock xmlns:dt="urn:schemas-microsoft-com:datatypes"><Description dt:dt="string">E-Prime Primary Realtime Clock</Description><StartTime><Timestamp dt:dt="int">0</Timestamp><DateUtc dt:dt="string">2023-01-07T04:14:11Z</DateUtc></StartTime><FrequencyChanges><FrequencyChange><Frequency dt:dt="r8">10000000</Frequency><Timestamp dt:dt="r8">18080983992042</Timestamp><Current dt:dt="r8">0</Current><DateUtc dt:dt="string">2023-01-07T04:14:11Z</DateUtc></FrequencyChange></FrequencyChanges></Clock>\n	Wisconsin-1151-4	60.000	1.0.0.253	1	-825708126	Full	3.0.3.80	3.0.3.80	01-07-2023	1/7/2023 4:14:12 AM	12:14:12	Keyboard	Keyboard	Keyboard	3.0.3.82	Keyboard	2					1	1	1		BlockProc	List2	1								3	1	1							NumberProc	List3											4	Button1.png	Button2.png	Button3.png	Button4.png	Greencross3.png							{Button3}	0	5	1	4				0	TrialProc	NumberList							1	{Button3}	Button	10	33	123728	0	{Button3}	1881	125609	number
Wisconsin	1151	4	<?xml version="1.0"?>\n<Clock xmlns:dt="urn:schemas-microsoft-com:datatypes"><Description dt:dt="string">E-Prime Primary Realtime Clock</Description><StartTime><Timestamp dt:dt="int">0</Timestamp><DateUtc dt:dt="string">2023-01-07T04:14:11Z</DateUtc></StartTime><FrequencyChanges><FrequencyChange><Frequency dt:dt="r8">10000000</Frequency><Timestamp dt:dt="r8">18080983992042</Timestamp><Current dt:dt="r8">0</Current><DateUtc dt:dt="string">2023-01-07T04:14:11Z</DateUtc></FrequencyChange></FrequencyChanges></Clock>\n	Wisconsin-1151-4	60.000	1.0.0.253	1	-825708126	Full	3.0.3.80	3.0.3.80	01-07-2023	1/7/2023 4:14:12 AM	12:14:12	Keyboard	Keyboard	Keyboard	3.0.3.82	Keyboard	2					1	1	1		BlockProc	List2	1								3	1	1							NumberProc	List3											5	Button1.png	Button2.png	Button3.png	Button4.png	Redcircle4.png							{Button2}	0	6	1	5				0	TrialProc	NumberList							1	{Button2}	Button	9	33	128194	0	{Button2}	1190	129384	number
Wisconsin	1151	4	<?xml version="1.0"?>\n<Clock xmlns:dt="urn:schemas-microsoft-com:datatypes"><Description dt:dt="string">E-Prime Primary Realtime Clock</Description><StartTime><Timestamp dt:dt="int">0</Timestamp><DateUtc dt:dt="string">2023-01-07T04:14:11Z</DateUtc></StartTime><FrequencyChanges><FrequencyChange><Frequency dt:dt="r8">10000000</Frequency><Timestamp dt:dt="r8">18080983992042</Timestamp><Current dt:dt="r8">0</Current><DateUtc dt:dt="string">2023-01-07T04:14:11Z</DateUtc></FrequencyChange></FrequencyChanges></Clock>\n	Wisconsin-1151-4	60.000	1.0.0.253	1	-825708126	Full	3.0.3.80	3.0.3.80	01-07-2023	1/7/2023 4:14:12 AM	12:14:12	Keyboard	Keyboard	Keyboard	3.0.3.82	Keyboard	2					1	1	1		BlockProc	List2	1								3	1	1							NumberProc	List3											6	Button1.png	Button2.png	Button3.png	Button4.png	Bluetriangle1.png							{Button4}	0	3	1	6				0	TrialProc	NumberList							1	{Button4}	Button	9	33	131959	0	{Button4}	922	132881	number
Wisconsin	1151	4	<?xml version="1.0"?>\n<Clock xmlns:dt="urn:schemas-microsoft-com:datatypes"><Description dt:dt="string">E-Prime Primary Realtime Clock</Description><StartTime><Timestamp dt:dt="int">0</Timestamp><DateUtc dt:dt="string">2023-01-07T04:14:11Z</DateUtc></StartTime><FrequencyChanges><FrequencyChange><Frequency dt:dt="r8">10000000</Frequency><Timestamp dt:dt="r8">18080983992042</Timestamp><Current dt:dt="r8">0</Current><DateUtc dt:dt="string">2023-01-07T04:14:11Z</DateUtc></FrequencyChange></FrequencyChanges></Clock>\n	Wisconsin-1151-4	60.000	1.0.0.253	1	-825708126	Full	3.0.3.80	3.0.3.80	01-07-2023	1/7/2023 4:14:12 AM	12:14:12	Keyboard	Keyboard	Keyboard	3.0.3.82	Keyboard	2					1	1	1		BlockProc	List2	1								3	1	1							NumberProc	List3											7	Button1.png	Button2.png	Button3.png	Button4.png	Greencircle4.png							{Button2}	0	4	1	7				0	TrialProc	NumberList							0	{Button2}	Button	10	34	135459	0	{Button1}	773	136232	number
Wisconsin	1151	4	<?xml version="1.0"?>\n<Clock xmlns:dt="urn:schemas-microsoft-com:datatypes"><Description dt:dt="string">E-Prime Primary Realtime Clock</Description><StartTime><Timestamp dt:dt="int">0</Timestamp><DateUtc dt:dt="string">2023-01-07T04:14:11Z</DateUtc></StartTime><FrequencyChanges><FrequencyChange><Frequency dt:dt="r8">10000000</Frequency><Timestamp dt:dt="r8">18080983992042</Timestamp><Current dt:dt="r8">0</Current><DateUtc dt:dt="string">2023-01-07T04:14:11Z</DateUtc></FrequencyChange></FrequencyChanges></Clock>\n	Wisconsin-1151-4	60.000	1.0.0.253	1	-825708126	Full	3.0.3.80	3.0.3.80	01-07-2023	1/7/2023 4:14:12 AM	12:14:12	Keyboard	Keyboard	Keyboard	3.0.3.82	Keyboard	2					1	1	1		BlockProc	List2	1								3	1	1							NumberProc	List3											8	Button1.png	Button2.png	Button3.png	Button4.png	Redstar2.png							{Button1}	0	7	1	8				0	TrialProc	NumberList							0	{Button1}	Button	10	33	138808	0	{Button4}	1985	140793	number
Wisconsin	1151	4	<?xml version="1.0"?>\n<Clock xmlns:dt="urn:schemas-microsoft-com:datatypes"><Description dt:dt="string">E-Prime Primary Realtime Clock</Description><StartTime><Timestamp dt:dt="int">0</Timestamp><DateUtc dt:dt="string">2023-01-07T04:14:11Z</DateUtc></StartTime><FrequencyChanges><FrequencyChange><Frequency dt:dt="r8">10000000</Frequency><Timestamp dt:dt="r8">18080983992042</Timestamp><Current dt:dt="r8">0</Current><DateUtc dt:dt="string">2023-01-07T04:14:11Z</DateUtc></FrequencyChange></FrequencyChanges></Clock>\n	Wisconsin-1151-4	60.000	1.0.0.253	1	-825708126	Full	3.0.3.80	3.0.3.80	01-07-2023	1/7/2023 4:14:12 AM	12:14:12	Keyboard	Keyboard	Keyboard	3.0.3.82	Keyboard	2					1	1	1		BlockProc	List2	1								3	1	1							NumberProc	List3											9	Button1.png	Button2.png	Button3.png	Button4.png	Bluestar2.png							{Button1}	0	2	1	9				0	TrialProc	NumberList							1	{Button1}	Button	10	33	143373	0	{Button1}	1612	144985	number
Wisconsin	1151	4	<?xml version="1.0"?>\n<Clock xmlns:dt="urn:schemas-microsoft-com:datatypes"><Description dt:dt="string">E-Prime Primary Realtime Clock</Description><StartTime><Timestamp dt:dt="int">0</Timestamp><DateUtc dt:dt="string">2023-01-07T04:14:11Z</DateUtc></StartTime><FrequencyChanges><FrequencyChange><Frequency dt:dt="r8">10000000</Frequency><Timestamp dt:dt="r8">18080983992042</Timestamp><Current dt:dt="r8">0</Current><DateUtc dt:dt="string">2023-01-07T04:14:11Z</DateUtc></FrequencyChange></FrequencyChanges></Clock>\n	Wisconsin-1151-4	60.000	1.0.0.253	1	-825708126	Full	3.0.3.80	3.0.3.80	01-07-2023	1/7/2023 4:14:12 AM	12:14:12	Keyboard	Keyboard	Keyboard	3.0.3.82	Keyboard	2					1	1	1		BlockProc	List2	1								3	1	1							NumberProc	List3											10	Button1.png	Button2.png	Button3.png	Button4.png	Redtriangle4.png							{Button2}	0	8	1	10				0	TrialProc	NumberList							1	{Button2}	Button	2	33	147572	0	{Button2}	741	148313	number
Wisconsin	1151	4	<?xml version="1.0"?>\n<Clock xmlns:dt="urn:schemas-microsoft-com:datatypes"><Description dt:dt="string">E-Prime Primary Realtime Clock</Description><StartTime><Timestamp dt:dt="int">0</Timestamp><DateUtc dt:dt="string">2023-01-07T04:14:11Z</DateUtc></StartTime><FrequencyChanges><FrequencyChange><Frequency dt:dt="r8">10000000</Frequency><Timestamp dt:dt="r8">18080983992042</Timestamp><Current dt:dt="r8">0</Current><DateUtc dt:dt="string">2023-01-07T04:14:11Z</DateUtc></FrequencyChange></FrequencyChanges></Clock>\n	Wisconsin-1151-4	60.000	1.0.0.253	1	-825708126	Full	3.0.3.80	3.0.3.80	01-07-2023	1/7/2023 4:14:12 AM	12:14:12	Keyboard	Keyboard	Keyboard	3.0.3.82	Keyboard	2					1	1	1		BlockProc	List2	2								1	1	2							ColorProc	List3											1	BUTTON1.png	BUTTON2.PNG	BUTTON3.png	BUTTON4.png	greentriangle1.png	6	1	1				{button1}	0							0	TrialProc	ColorList							0	{button1}	Button	10	33	150888	0	{Button4}	993	151881	Color
Wisconsin	1151	4	<?xml version="1.0"?>\n<Clock xmlns:dt="urn:schemas-microsoft-com:datatypes"><Description dt:dt="string">E-Prime Primary Realtime Clock</Description><StartTime><Timestamp dt:dt="int">0</Timestamp><DateUtc dt:dt="string">2023-01-07T04:14:11Z</DateUtc></StartTime><FrequencyChanges><FrequencyChange><Frequency dt:dt="r8">10000000</Frequency><Timestamp dt:dt="r8">18080983992042</Timestamp><Current dt:dt="r8">0</Current><DateUtc dt:dt="string">2023-01-07T04:14:11Z</DateUtc></FrequencyChange></FrequencyChanges></Clock>\n	Wisconsin-1151-4	60.000	1.0.0.253	1	-825708126	Full	3.0.3.80	3.0.3.80	01-07-2023	1/7/2023 4:14:12 AM	12:14:12	Keyboard	Keyboard	Keyboard	3.0.3.82	Keyboard	2					1	1	1		BlockProc	List2	2								1	1	2							ColorProc	List3											2	BUTTON1.png	BUTTON2.PNG	BUTTON3.png	BUTTON4.png	greentriangle3.png	7	1	2				{button1}	0							0	TrialProc	ColorList							0	{button1}	Button	9	50	154471	0	{Button2}	921	155392	Color
Wisconsin	1151	4	<?xml version="1.0"?>\n<Clock xmlns:dt="urn:schemas-microsoft-com:datatypes"><Description dt:dt="string">E-Prime Primary Realtime Clock</Description><StartTime><Timestamp dt:dt="int">0</Timestamp><DateUtc dt:dt="string">2023-01-07T04:14:11Z</DateUtc></StartTime><FrequencyChanges><FrequencyChange><Frequency dt:dt="r8">10000000</Frequency><Timestamp dt:dt="r8">18080983992042</Timestamp><Current dt:dt="r8">0</Current><DateUtc dt:dt="string">2023-01-07T04:14:11Z</DateUtc></FrequencyChange></FrequencyChanges></Clock>\n	Wisconsin-1151-4	60.000	1.0.0.253	1	-825708126	Full	3.0.3.80	3.0.3.80	01-07-2023	1/7/2023 4:14:12 AM	12:14:12	Keyboard	Keyboard	Keyboard	3.0.3.82	Keyboard	2					1	1	1		BlockProc	List2	2								1	1	2							ColorProc	List3											3	BUTTON1.png	BUTTON2.PNG	BUTTON3.png	BUTTON4.png	bluetriangle3.png	3	1	3				{button4}	0							0	TrialProc	ColorList							0	{button4}	Button	10	49	157986	0	{Button2}	943	158929	Color
Wisconsin	1151	4	<?xml version="1.0"?>\n<Clock xmlns:dt="urn:schemas-microsoft-com:datatypes"><Description dt:dt="string">E-Prime Primary Realtime Clock</Description><StartTime><Timestamp dt:dt="int">0</Timestamp><DateUtc dt:dt="string">2023-01-07T04:14:11Z</DateUtc></StartTime><FrequencyChanges><FrequencyChange><Frequency dt:dt="r8">10000000</Frequency><Timestamp dt:dt="r8">18080983992042</Timestamp><Current dt:dt="r8">0</Current><DateUtc dt:dt="string">2023-01-07T04:14:11Z</DateUtc></FrequencyChange></FrequencyChanges></Clock>\n	Wisconsin-1151-4	60.000	1.0.0.253	1	-825708126	Full	3.0.3.80	3.0.3.80	01-07-2023	1/7/2023 4:14:12 AM	12:14:12	Keyboard	Keyboard	Keyboard	3.0.3.82	Keyboard	2					1	1	1		BlockProc	List2	2								1	1	2							ColorProc	List3											4	BUTTON1.png	BUTTON2.PNG	BUTTON3.png	BUTTON4.png	yellowstar3.png	10	1	4				{button2}	0							0	TrialProc	ColorList							1	{button2}	Button	2	33	161502	0	{Button2}	859	162361	Color
Wisconsin	1151	4	<?xml version="1.0"?>\n<Clock xmlns:dt="urn:schemas-microsoft-com:datatypes"><Description dt:dt="string">E-Prime Primary Realtime Clock</Description><StartTime><Timestamp dt:dt="int">0</Timestamp><DateUtc dt:dt="string">2023-01-07T04:14:11Z</DateUtc></StartTime><FrequencyChanges><FrequencyChange><Frequency dt:dt="r8">10000000</Frequency><Timestamp dt:dt="r8">18080983992042</Timestamp><Current dt:dt="r8">0</Current><DateUtc dt:dt="string">2023-01-07T04:14:11Z</DateUtc></FrequencyChange></FrequencyChanges></Clock>\n	Wisconsin-1151-4	60.000	1.0.0.253	1	-825708126	Full	3.0.3.80	3.0.3.80	01-07-2023	1/7/2023 4:14:12 AM	12:14:12	Keyboard	Keyboard	Keyboard	3.0.3.82	Keyboard	2					1	1	1		BlockProc	List2	2								1	1	2							ColorProc	List3											5	BUTTON1.png	BUTTON2.PNG	BUTTON3.png	BUTTON4.png	yellowcircle1.png	9	1	5				{button2}	0							0	TrialProc	ColorList							1	{button2}	Button	9	33	164935	0	{Button2}	730	165665	Color
Wisconsin	1151	4	<?xml version="1.0"?>\n<Clock xmlns:dt="urn:schemas-microsoft-com:datatypes"><Description dt:dt="string">E-Prime Primary Realtime Clock</Description><StartTime><Timestamp dt:dt="int">0</Timestamp><DateUtc dt:dt="string">2023-01-07T04:14:11Z</DateUtc></StartTime><FrequencyChanges><FrequencyChange><Frequency dt:dt="r8">10000000</Frequency><Timestamp dt:dt="r8">18080983992042</Timestamp><Current dt:dt="r8">0</Current><DateUtc dt:dt="string">2023-01-07T04:14:11Z</DateUtc></FrequencyChange></FrequencyChanges></Clock>\n	Wisconsin-1151-4	60.000	1.0.0.253	1	-825708126	Full	3.0.3.80	3.0.3.80	01-07-2023	1/7/2023 4:14:12 AM	12:14:12	Keyboard	Keyboard	Keyboard	3.0.3.82	Keyboard	2					1	1	1		BlockProc	List2	2								1	1	2							ColorProc	List3											6	BUTTON1.png	BUTTON2.PNG	BUTTON3.png	BUTTON4.png	greencircle3.png	4	1	6				{button1}	0							0	TrialProc	ColorList							1	{button1}	Button	10	34	168251	0	{Button1}	870	169121	Color
Wisconsin	1151	4	<?xml version="1.0"?>\n<Clock xmlns:dt="urn:schemas-microsoft-com:datatypes"><Description dt:dt="string">E-Prime Primary Realtime Clock</Description><StartTime><Timestamp dt:dt="int">0</Timestamp><DateUtc dt:dt="string">2023-01-07T04:14:11Z</DateUtc></StartTime><FrequencyChanges><FrequencyChange><Frequency dt:dt="r8">10000000</Frequency><Timestamp dt:dt="r8">18080983992042</Timestamp><Current dt:dt="r8">0</Current><DateUtc dt:dt="string">2023-01-07T04:14:11Z</DateUtc></FrequencyChange></FrequencyChanges></Clock>\n	Wisconsin-1151-4	60.000	1.0.0.253	1	-825708126	Full	3.0.3.80	3.0.3.80	01-07-2023	1/7/2023 4:14:12 AM	12:14:12	Keyboard	Keyboard	Keyboard	3.0.3.82	Keyboard	2					1	1	1		BlockProc	List2	2								1	1	2							ColorProc	List3											7	BUTTON1.png	BUTTON2.PNG	BUTTON3.png	BUTTON4.png	greenstar2.png	5	1	7				{button1}	0							0	TrialProc	ColorList							1	{button1}	Button	1	33	171700	0	{Button1}	1013	172713	Color
Wisconsin	1151	4	<?xml version="1.0"?>\n<Clock xmlns:dt="urn:schemas-microsoft-com:datatypes"><Description dt:dt="string">E-Prime Primary Realtime Clock</Description><StartTime><Timestamp dt:dt="int">0</Timestamp><DateUtc dt:dt="string">2023-01-07T04:14:11Z</DateUtc></StartTime><FrequencyChanges><FrequencyChange><Frequency dt:dt="r8">10000000</Frequency><Timestamp dt:dt="r8">18080983992042</Timestamp><Current dt:dt="r8">0</Current><DateUtc dt:dt="string">2023-01-07T04:14:11Z</DateUtc></FrequencyChange></FrequencyChanges></Clock>\n	Wisconsin-1151-4	60.000	1.0.0.253	1	-825708126	Full	3.0.3.80	3.0.3.80	01-07-2023	1/7/2023 4:14:12 AM	12:14:12	Keyboard	Keyboard	Keyboard	3.0.3.82	Keyboard	2					1	1	1		BlockProc	List2	2								1	1	2							ColorProc	List3											8	BUTTON1.png	BUTTON2.PNG	BUTTON3.png	BUTTON4.png	bluecross2.png	2	1	8				{button4}	0							0	TrialProc	ColorList							1	{button4}	Button	10	49	175315	0	{Button4}	2246	177561	Color
Wisconsin	1151	4	<?xml version="1.0"?>\n<Clock xmlns:dt="urn:schemas-microsoft-com:datatypes"><Description dt:dt="string">E-Prime Primary Realtime Clock</Description><StartTime><Timestamp dt:dt="int">0</Timestamp><DateUtc dt:dt="string">2023-01-07T04:14:11Z</DateUtc></StartTime><FrequencyChanges><FrequencyChange><Frequency dt:dt="r8">10000000</Frequency><Timestamp dt:dt="r8">18080983992042</Timestamp><Current dt:dt="r8">0</Current><DateUtc dt:dt="string">2023-01-07T04:14:11Z</DateUtc></FrequencyChange></FrequencyChanges></Clock>\n	Wisconsin-1151-4	60.000	1.0.0.253	1	-825708126	Full	3.0.3.80	3.0.3.80	01-07-2023	1/7/2023 4:14:12 AM	12:14:12	Keyboard	Keyboard	Keyboard	3.0.3.82	Keyboard	2					1	1	1		BlockProc	List2	2								1	1	2							ColorProc	List3											9	BUTTON1.png	BUTTON2.PNG	BUTTON3.png	BUTTON4.png	bluecircle1.png	1	1	9				{button4}	0							0	TrialProc	ColorList							0	{button4}	Button	2	49	180164	0	{Button1}	2213	182377	Color
Wisconsin	1151	4	<?xml version="1.0"?>\n<Clock xmlns:dt="urn:schemas-microsoft-com:datatypes"><Description dt:dt="string">E-Prime Primary Realtime Clock</Description><StartTime><Timestamp dt:dt="int">0</Timestamp><DateUtc dt:dt="string">2023-01-07T04:14:11Z</DateUtc></StartTime><FrequencyChanges><FrequencyChange><Frequency dt:dt="r8">10000000</Frequency><Timestamp dt:dt="r8">18080983992042</Timestamp><Current dt:dt="r8">0</Current><DateUtc dt:dt="string">2023-01-07T04:14:11Z</DateUtc></FrequencyChange></FrequencyChanges></Clock>\n	Wisconsin-1151-4	60.000	1.0.0.253	1	-825708126	Full	3.0.3.80	3.0.3.80	01-07-2023	1/7/2023 4:14:12 AM	12:14:12	Keyboard	Keyboard	Keyboard	3.0.3.82	Keyboard	2					1	1	1		BlockProc	List2	2								1	1	2							ColorProc	List3											10	BUTTON1.png	BUTTON2.PNG	BUTTON3.png	BUTTON4.png	redcircle3.png	8	1	10				{button3}	0							0	TrialProc	ColorList							1	{button3}	Button	2	33	184963	0	{Button3}	710	185673	Color
Wisconsin	1151	4	<?xml version="1.0"?>\n<Clock xmlns:dt="urn:schemas-microsoft-com:datatypes"><Description dt:dt="string">E-Prime Primary Realtime Clock</Description><StartTime><Timestamp dt:dt="int">0</Timestamp><DateUtc dt:dt="string">2023-01-07T04:14:11Z</DateUtc></StartTime><FrequencyChanges><FrequencyChange><Frequency dt:dt="r8">10000000</Frequency><Timestamp dt:dt="r8">18080983992042</Timestamp><Current dt:dt="r8">0</Current><DateUtc dt:dt="string">2023-01-07T04:14:11Z</DateUtc></FrequencyChange></FrequencyChanges></Clock>\n	Wisconsin-1151-4	60.000	1.0.0.253	1	-825708126	Full	3.0.3.80	3.0.3.80	01-07-2023	1/7/2023 4:14:12 AM	12:14:12	Keyboard	Keyboard	Keyboard	3.0.3.82	Keyboard	2					1	1	1		BlockProc	List2	3								2	1	3							ShapeProc	List3											1	Button1.png	Button2.png	Button3.png	Button4.png	Redtriangle1.png							{Button2}	0							0	TrialProc	ShapeList	7	1	1				0	{Button2}	Button	9	33	188246	0	{Button3}	859	189105	Shape
Wisconsin	1151	4	<?xml version="1.0"?>\n<Clock xmlns:dt="urn:schemas-microsoft-com:datatypes"><Description dt:dt="string">E-Prime Primary Realtime Clock</Description><StartTime><Timestamp dt:dt="int">0</Timestamp><DateUtc dt:dt="string">2023-01-07T04:14:11Z</DateUtc></StartTime><FrequencyChanges><FrequencyChange><Frequency dt:dt="r8">10000000</Frequency><Timestamp dt:dt="r8">18080983992042</Timestamp><Current dt:dt="r8">0</Current><DateUtc dt:dt="string">2023-01-07T04:14:11Z</DateUtc></FrequencyChange></FrequencyChanges></Clock>\n	Wisconsin-1151-4	60.000	1.0.0.253	1	-825708126	Full	3.0.3.80	3.0.3.80	01-07-2023	1/7/2023 4:14:12 AM	12:14:12	Keyboard	Keyboard	Keyboard	3.0.3.82	Keyboard	2					1	1	1		BlockProc	List2	3								2	1	3							ShapeProc	List3											2	Button1.png	Button2.png	Button3.png	Button4.png	Yellowstar1.png							{Button4}	0							0	TrialProc	ShapeList	9	1	2				0	{Button4}	Button	2	33	191678	0	{Button2}	1259	192937	Shape
Wisconsin	1151	4	<?xml version="1.0"?>\n<Clock xmlns:dt="urn:schemas-microsoft-com:datatypes"><Description dt:dt="string">E-Prime Primary Realtime Clock</Description><StartTime><Timestamp dt:dt="int">0</Timestamp><DateUtc dt:dt="string">2023-01-07T04:14:11Z</DateUtc></StartTime><FrequencyChanges><FrequencyChange><Frequency dt:dt="r8">10000000</Frequency><Timestamp dt:dt="r8">18080983992042</Timestamp><Current dt:dt="r8">0</Current><DateUtc dt:dt="string">2023-01-07T04:14:11Z</DateUtc></FrequencyChange></FrequencyChanges></Clock>\n	Wisconsin-1151-4	60.000	1.0.0.253	1	-825708126	Full	3.0.3.80	3.0.3.80	01-07-2023	1/7/2023 4:14:12 AM	12:14:12	Keyboard	Keyboard	Keyboard	3.0.3.82	Keyboard	2					1	1	1		BlockProc	List2	3								2	1	3							ShapeProc	List3											3	Button1.png	Button2.png	Button3.png	Button4.png	Yellowstar4.png							{Button4}	0							0	TrialProc	ShapeList	10	1	3				1	{Button4}	Button	1	34	195511	0	{Button4}	1641	197152	Shape
Wisconsin	1151	4	<?xml version="1.0"?>\n<Clock xmlns:dt="urn:schemas-microsoft-com:datatypes"><Description dt:dt="string">E-Prime Primary Realtime Clock</Description><StartTime><Timestamp dt:dt="int">0</Timestamp><DateUtc dt:dt="string">2023-01-07T04:14:11Z</DateUtc></StartTime><FrequencyChanges><FrequencyChange><Frequency dt:dt="r8">10000000</Frequency><Timestamp dt:dt="r8">18080983992042</Timestamp><Current dt:dt="r8">0</Current><DateUtc dt:dt="string">2023-01-07T04:14:11Z</DateUtc></FrequencyChange></FrequencyChanges></Clock>\n	Wisconsin-1151-4	60.000	1.0.0.253	1	-825708126	Full	3.0.3.80	3.0.3.80	01-07-2023	1/7/2023 4:14:12 AM	12:14:12	Keyboard	Keyboard	Keyboard	3.0.3.82	Keyboard	2					1	1	1		BlockProc	List2	3								2	1	3							ShapeProc	List3											4	Button1.png	Button2.png	Button3.png	Button4.png	Redcross4.png							{Button3}	0							0	TrialProc	ShapeList	6	1	4				1	{Button3}	Button	2	33	199726	0	{Button3}	1595	201321	Shape
Wisconsin	1151	4	<?xml version="1.0"?>\n<Clock xmlns:dt="urn:schemas-microsoft-com:datatypes"><Description dt:dt="string">E-Prime Primary Realtime Clock</Description><StartTime><Timestamp dt:dt="int">0</Timestamp><DateUtc dt:dt="string">2023-01-07T04:14:11Z</DateUtc></StartTime><FrequencyChanges><FrequencyChange><Frequency dt:dt="r8">10000000</Frequency><Timestamp dt:dt="r8">18080983992042</Timestamp><Current dt:dt="r8">0</Current><DateUtc dt:dt="string">2023-01-07T04:14:11Z</DateUtc></FrequencyChange></FrequencyChanges></Clock>\n	Wisconsin-1151-4	60.000	1.0.0.253	1	-825708126	Full	3.0.3.80	3.0.3.80	01-07-2023	1/7/2023 4:14:12 AM	12:14:12	Keyboard	Keyboard	Keyboard	3.0.3.82	Keyboard	2					1	1	1		BlockProc	List2	3								2	1	3							ShapeProc	List3											5	Button1.png	Button2.png	Button3.png	Button4.png	Redcross1.png							{Button3}	0							0	TrialProc	ShapeList	5	1	5				0	{Button3}	Button	11	33	203908	0	{Button4}	2197	206105	Shape
Wisconsin	1151	4	<?xml version="1.0"?>\n<Clock xmlns:dt="urn:schemas-microsoft-com:datatypes"><Description dt:dt="string">E-Prime Primary Realtime Clock</Description><StartTime><Timestamp dt:dt="int">0</Timestamp><DateUtc dt:dt="string">2023-01-07T04:14:11Z</DateUtc></StartTime><FrequencyChanges><FrequencyChange><Frequency dt:dt="r8">10000000</Frequency><Timestamp dt:dt="r8">18080983992042</Timestamp><Current dt:dt="r8">0</Current><DateUtc dt:dt="string">2023-01-07T04:14:11Z</DateUtc></FrequencyChange></FrequencyChanges></Clock>\n	Wisconsin-1151-4	60.000	1.0.0.253	1	-825708126	Full	3.0.3.80	3.0.3.80	01-07-2023	1/7/2023 4:14:12 AM	12:14:12	Keyboard	Keyboard	Keyboard	3.0.3.82	Keyboard	2					1	1	1		BlockProc	List2	3								2	1	3							ShapeProc	List3											6	Button1.png	Button2.png	Button3.png	Button4.png	Bluecircle2.png							{Button1}	0							0	TrialProc	ShapeList	1	1	6				1	{Button1}	Button	9	33	208691	0	{Button1}	1446	210137	Shape
Wisconsin	1151	4	<?xml version="1.0"?>\n<Clock xmlns:dt="urn:schemas-microsoft-com:datatypes"><Description dt:dt="string">E-Prime Primary Realtime Clock</Description><StartTime><Timestamp dt:dt="int">0</Timestamp><DateUtc dt:dt="string">2023-01-07T04:14:11Z</DateUtc></StartTime><FrequencyChanges><FrequencyChange><Frequency dt:dt="r8">10000000</Frequency><Timestamp dt:dt="r8">18080983992042</Timestamp><Current dt:dt="r8">0</Current><DateUtc dt:dt="string">2023-01-07T04:14:11Z</DateUtc></FrequencyChange></FrequencyChanges></Clock>\n	Wisconsin-1151-4	60.000	1.0.0.253	1	-825708126	Full	3.0.3.80	3.0.3.80	01-07-2023	1/7/2023 4:14:12 AM	12:14:12	Keyboard	Keyboard	Keyboard	3.0.3.82	Keyboard	2					1	1	1		BlockProc	List2	3								2	1	3							ShapeProc	List3											7	Button1.png	Button2.png	Button3.png	Button4.png	Greentriangle4.png							{Button2}	0							0	TrialProc	ShapeList	4	1	7				1	{Button2}	Button	9	50	212740	0	{Button2}	1005	213745	Shape
Wisconsin	1151	4	<?xml version="1.0"?>\n<Clock xmlns:dt="urn:schemas-microsoft-com:datatypes"><Description dt:dt="string">E-Prime Primary Realtime Clock</Description><StartTime><Timestamp dt:dt="int">0</Timestamp><DateUtc dt:dt="string">2023-01-07T04:14:11Z</DateUtc></StartTime><FrequencyChanges><FrequencyChange><Frequency dt:dt="r8">10000000</Frequency><Timestamp dt:dt="r8">18080983992042</Timestamp><Current dt:dt="r8">0</Current><DateUtc dt:dt="string">2023-01-07T04:14:11Z</DateUtc></FrequencyChange></FrequencyChanges></Clock>\n	Wisconsin-1151-4	60.000	1.0.0.253	1	-825708126	Full	3.0.3.80	3.0.3.80	01-07-2023	1/7/2023 4:14:12 AM	12:14:12	Keyboard	Keyboard	Keyboard	3.0.3.82	Keyboard	2					1	1	1		BlockProc	List2	3								2	1	3							ShapeProc	List3											8	Button1.png	Button2.png	Button3.png	Button4.png	Bluecross4.png							{Button3}	0							0	TrialProc	ShapeList	2	1	8				1	{Button3}	Button	10	33	216322	0	{Button3}	879	217201	Shape
Wisconsin	1151	4	<?xml version="1.0"?>\n<Clock xmlns:dt="urn:schemas-microsoft-com:datatypes"><Description dt:dt="string">E-Prime Primary Realtime Clock</Description><StartTime><Timestamp dt:dt="int">0</Timestamp><DateUtc dt:dt="string">2023-01-07T04:14:11Z</DateUtc></StartTime><FrequencyChanges><FrequencyChange><Frequency dt:dt="r8">10000000</Frequency><Timestamp dt:dt="r8">18080983992042</Timestamp><Current dt:dt="r8">0</Current><DateUtc dt:dt="string">2023-01-07T04:14:11Z</DateUtc></FrequencyChange></FrequencyChanges></Clock>\n	Wisconsin-1151-4	60.000	1.0.0.253	1	-825708126	Full	3.0.3.80	3.0.3.80	01-07-2023	1/7/2023 4:14:12 AM	12:14:12	Keyboard	Keyboard	Keyboard	3.0.3.82	Keyboard	2					1	1	1		BlockProc	List2	3								2	1	3							ShapeProc	List3											9	Button1.png	Button2.png	Button3.png	Button4.png	yellowcircle3.png							{Button1}	0							0	TrialProc	ShapeList	8	1	9				0	{Button1}	Button	12	50	219805	0	{Button3}	1244	221049	Shape
Wisconsin	1151	4	<?xml version="1.0"?>\n<Clock xmlns:dt="urn:schemas-microsoft-com:datatypes"><Description dt:dt="string">E-Prime Primary Realtime Clock</Description><StartTime><Timestamp dt:dt="int">0</Timestamp><DateUtc dt:dt="string">2023-01-07T04:14:11Z</DateUtc></StartTime><FrequencyChanges><FrequencyChange><Frequency dt:dt="r8">10000000</Frequency><Timestamp dt:dt="r8">18080983992042</Timestamp><Current dt:dt="r8">0</Current><DateUtc dt:dt="string">2023-01-07T04:14:11Z</DateUtc></FrequencyChange></FrequencyChanges></Clock>\n	Wisconsin-1151-4	60.000	1.0.0.253	1	-825708126	Full	3.0.3.80	3.0.3.80	01-07-2023	1/7/2023 4:14:12 AM	12:14:12	Keyboard	Keyboard	Keyboard	3.0.3.82	Keyboard	2					1	1	1		BlockProc	List2	3								2	1	3							ShapeProc	List3											10	Button1.png	Button2.png	Button3.png	Button4.png	Greencross1.png							{Button3}	0							0	TrialProc	ShapeList	3	1	10				0	{Button3}	Button	9	33	223620	0	{Button1}	2613	226233	Shape
Wisconsin	1151	4	<?xml version="1.0"?>\n<Clock xmlns:dt="urn:schemas-microsoft-com:datatypes"><Description dt:dt="string">E-Prime Primary Realtime Clock</Description><StartTime><Timestamp dt:dt="int">0</Timestamp><DateUtc dt:dt="string">2023-01-07T04:14:11Z</DateUtc></StartTime><FrequencyChanges><FrequencyChange><Frequency dt:dt="r8">10000000</Frequency><Timestamp dt:dt="r8">18080983992042</Timestamp><Current dt:dt="r8">0</Current><DateUtc dt:dt="string">2023-01-07T04:14:11Z</DateUtc></FrequencyChange></FrequencyChanges></Clock>\n	Wisconsin-1151-4	60.000	1.0.0.253	1	-825708126	Full	3.0.3.80	3.0.3.80	01-07-2023	1/7/2023 4:14:12 AM	12:14:12	Keyboard	Keyboard	Keyboard	3.0.3.82	Keyboard	3					2	1	2		BlockProc2	List2	1											2	1	1				ShapeProc2	List4											1	Button1.png	Button2.png	Button3.png	Button4.png	Yellowstar2.png							{button4}	0							0	TrialProc	ShapeList2				9	1	1	1	{button4}	Button	2	33	228819	0	{Button4}	1814	230633	Shape
Wisconsin	1151	4	<?xml version="1.0"?>\n<Clock xmlns:dt="urn:schemas-microsoft-com:datatypes"><Description dt:dt="string">E-Prime Primary Realtime Clock</Description><StartTime><Timestamp dt:dt="int">0</Timestamp><DateUtc dt:dt="string">2023-01-07T04:14:11Z</DateUtc></StartTime><FrequencyChanges><FrequencyChange><Frequency dt:dt="r8">10000000</Frequency><Timestamp dt:dt="r8">18080983992042</Timestamp><Current dt:dt="r8">0</Current><DateUtc dt:dt="string">2023-01-07T04:14:11Z</DateUtc></FrequencyChange></FrequencyChanges></Clock>\n	Wisconsin-1151-4	60.000	1.0.0.253	1	-825708126	Full	3.0.3.80	3.0.3.80	01-07-2023	1/7/2023 4:14:12 AM	12:14:12	Keyboard	Keyboard	Keyboard	3.0.3.82	Keyboard	3					2	1	2		BlockProc2	List2	1											2	1	1				ShapeProc2	List4											2	Button1.png	Button2.png	Button3.png	Button4.png	Bluetriangle2.png							{button2}	0							0	TrialProc	ShapeList2				2	1	2	1	{button2}	Button	2	33	233218	0	{Button2}	1855	235073	Shape
Wisconsin	1151	4	<?xml version="1.0"?>\n<Clock xmlns:dt="urn:schemas-microsoft-com:datatypes"><Description dt:dt="string">E-Prime Primary Realtime Clock</Description><StartTime><Timestamp dt:dt="int">0</Timestamp><DateUtc dt:dt="string">2023-01-07T04:14:11Z</DateUtc></StartTime><FrequencyChanges><FrequencyChange><Frequency dt:dt="r8">10000000</Frequency><Timestamp dt:dt="r8">18080983992042</Timestamp><Current dt:dt="r8">0</Current><DateUtc dt:dt="string">2023-01-07T04:14:11Z</DateUtc></FrequencyChange></FrequencyChanges></Clock>\n	Wisconsin-1151-4	60.000	1.0.0.253	1	-825708126	Full	3.0.3.80	3.0.3.80	01-07-2023	1/7/2023 4:14:12 AM	12:14:12	Keyboard	Keyboard	Keyboard	3.0.3.82	Keyboard	3					2	1	2		BlockProc2	List2	1											2	1	1				ShapeProc2	List4											3	Button1.png	Button2.png	Button3.png	Button4.png	Bluecircle3.png							{button1}	0							0	TrialProc	ShapeList2				1	1	3	0	{button1}	Button	12	33	237650	0	{Button2}	87	237737	Shape
Wisconsin	1151	4	<?xml version="1.0"?>\n<Clock xmlns:dt="urn:schemas-microsoft-com:datatypes"><Description dt:dt="string">E-Prime Primary Realtime Clock</Description><StartTime><Timestamp dt:dt="int">0</Timestamp><DateUtc dt:dt="string">2023-01-07T04:14:11Z</DateUtc></StartTime><FrequencyChanges><FrequencyChange><Frequency dt:dt="r8">10000000</Frequency><Timestamp dt:dt="r8">18080983992042</Timestamp><Current dt:dt="r8">0</Current><DateUtc dt:dt="string">2023-01-07T04:14:11Z</DateUtc></FrequencyChange></FrequencyChanges></Clock>\n	Wisconsin-1151-4	60.000	1.0.0.253	1	-825708126	Full	3.0.3.80	3.0.3.80	01-07-2023	1/7/2023 4:14:12 AM	12:14:12	Keyboard	Keyboard	Keyboard	3.0.3.82	Keyboard	3					2	1	2		BlockProc2	List2	1											2	1	1				ShapeProc2	List4											4	Button1.png	Button2.png	Button3.png	Button4.png	Redcross2.png							{button3}	0							0	TrialProc	ShapeList2				5	1	4	1	{button3}	Button	2	33	240316	0	{Button3}	900	241216	Shape
Wisconsin	1151	4	<?xml version="1.0"?>\n<Clock xmlns:dt="urn:schemas-microsoft-com:datatypes"><Description dt:dt="string">E-Prime Primary Realtime Clock</Description><StartTime><Timestamp dt:dt="int">0</Timestamp><DateUtc dt:dt="string">2023-01-07T04:14:11Z</DateUtc></StartTime><FrequencyChanges><FrequencyChange><Frequency dt:dt="r8">10000000</Frequency><Timestamp dt:dt="r8">18080983992042</Timestamp><Current dt:dt="r8">0</Current><DateUtc dt:dt="string">2023-01-07T04:14:11Z</DateUtc></FrequencyChange></FrequencyChanges></Clock>\n	Wisconsin-1151-4	60.000	1.0.0.253	1	-825708126	Full	3.0.3.80	3.0.3.80	01-07-2023	1/7/2023 4:14:12 AM	12:14:12	Keyboard	Keyboard	Keyboard	3.0.3.82	Keyboard	3					2	1	2		BlockProc2	List2	1											2	1	1				ShapeProc2	List4											5	Button1.png	Button2.png	Button3.png	Button4.png	redcircle1.png							{button1}	0							0	TrialProc	ShapeList2				4	1	5	1	{button1}	Button	2	33	243782	0	{Button1}	1315	245097	Shape
Wisconsin	1151	4	<?xml version="1.0"?>\n<Clock xmlns:dt="urn:schemas-microsoft-com:datatypes"><Description dt:dt="string">E-Prime Primary Realtime Clock</Description><StartTime><Timestamp dt:dt="int">0</Timestamp><DateUtc dt:dt="string">2023-01-07T04:14:11Z</DateUtc></StartTime><FrequencyChanges><FrequencyChange><Frequency dt:dt="r8">10000000</Frequency><Timestamp dt:dt="r8">18080983992042</Timestamp><Current dt:dt="r8">0</Current><DateUtc dt:dt="string">2023-01-07T04:14:11Z</DateUtc></FrequencyChange></FrequencyChanges></Clock>\n	Wisconsin-1151-4	60.000	1.0.0.253	1	-825708126	Full	3.0.3.80	3.0.3.80	01-07-2023	1/7/2023 4:14:12 AM	12:14:12	Keyboard	Keyboard	Keyboard	3.0.3.82	Keyboard	3					2	1	2		BlockProc2	List2	1											2	1	1				ShapeProc2	List4											6	Button1.png	Button2.png	Button3.png	Button4.png	Greenstar3.png							{button4}	0							0	TrialProc	ShapeList2				3	1	6	1	{button4}	Button	2	33	247681	0	{Button4}	2399	250080	Shape
Wisconsin	1151	4	<?xml version="1.0"?>\n<Clock xmlns:dt="urn:schemas-microsoft-com:datatypes"><Description dt:dt="string">E-Prime Primary Realtime Clock</Description><StartTime><Timestamp dt:dt="int">0</Timestamp><DateUtc dt:dt="string">2023-01-07T04:14:11Z</DateUtc></StartTime><FrequencyChanges><FrequencyChange><Frequency dt:dt="r8">10000000</Frequency><Timestamp dt:dt="r8">18080983992042</Timestamp><Current dt:dt="r8">0</Current><DateUtc dt:dt="string">2023-01-07T04:14:11Z</DateUtc></FrequencyChange></FrequencyChanges></Clock>\n	Wisconsin-1151-4	60.000	1.0.0.253	1	-825708126	Full	3.0.3.80	3.0.3.80	01-07-2023	1/7/2023 4:14:12 AM	12:14:12	Keyboard	Keyboard	Keyboard	3.0.3.82	Keyboard	3					2	1	2		BlockProc2	List2	1											2	1	1				ShapeProc2	List4											7	Button1.png	Button2.png	Button3.png	Button4.png	Redstar3.png							{button4}	0							0	TrialProc	ShapeList2				6	1	7	0	{button4}	Button	3	33	252663	0	{Button3}	1273	253936	Shape
Wisconsin	1151	4	<?xml version="1.0"?>\n<Clock xmlns:dt="urn:schemas-microsoft-com:datatypes"><Description dt:dt="string">E-Prime Primary Realtime Clock</Description><StartTime><Timestamp dt:dt="int">0</Timestamp><DateUtc dt:dt="string">2023-01-07T04:14:11Z</DateUtc></StartTime><FrequencyChanges><FrequencyChange><Frequency dt:dt="r8">10000000</Frequency><Timestamp dt:dt="r8">18080983992042</Timestamp><Current dt:dt="r8">0</Current><DateUtc dt:dt="string">2023-01-07T04:14:11Z</DateUtc></FrequencyChange></FrequencyChanges></Clock>\n	Wisconsin-1151-4	60.000	1.0.0.253	1	-825708126	Full	3.0.3.80	3.0.3.80	01-07-2023	1/7/2023 4:14:12 AM	12:14:12	Keyboard	Keyboard	Keyboard	3.0.3.82	Keyboard	3					2	1	2		BlockProc2	List2	1											2	1	1				ShapeProc2	List4											8	Button1.png	Button2.png	Button3.png	Button4.png	Yellowtriangle1.png							{button2}	0							0	TrialProc	ShapeList2				10	1	8	1	{button2}	Button	11	33	256512	0	{Button2}	1297	257809	Shape
Wisconsin	1151	4	<?xml version="1.0"?>\n<Clock xmlns:dt="urn:schemas-microsoft-com:datatypes"><Description dt:dt="string">E-Prime Primary Realtime Clock</Description><StartTime><Timestamp dt:dt="int">0</Timestamp><DateUtc dt:dt="string">2023-01-07T04:14:11Z</DateUtc></StartTime><FrequencyChanges><FrequencyChange><Frequency dt:dt="r8">10000000</Frequency><Timestamp dt:dt="r8">18080983992042</Timestamp><Current dt:dt="r8">0</Current><DateUtc dt:dt="string">2023-01-07T04:14:11Z</DateUtc></FrequencyChange></FrequencyChanges></Clock>\n	Wisconsin-1151-4	60.000	1.0.0.253	1	-825708126	Full	3.0.3.80	3.0.3.80	01-07-2023	1/7/2023 4:14:12 AM	12:14:12	Keyboard	Keyboard	Keyboard	3.0.3.82	Keyboard	3					2	1	2		BlockProc2	List2	1											2	1	1				ShapeProc2	List4											9	Button1.png	Button2.png	Button3.png	Button4.png	yellowcross4.png							{button3}	0							0	TrialProc	ShapeList2				8	1	9	1	{button3}	Button	9	33	260395	0	{Button3}	1285	261680	Shape
Wisconsin	1151	4	<?xml version="1.0"?>\n<Clock xmlns:dt="urn:schemas-microsoft-com:datatypes"><Description dt:dt="string">E-Prime Primary Realtime Clock</Description><StartTime><Timestamp dt:dt="int">0</Timestamp><DateUtc dt:dt="string">2023-01-07T04:14:11Z</DateUtc></StartTime><FrequencyChanges><FrequencyChange><Frequency dt:dt="r8">10000000</Frequency><Timestamp dt:dt="r8">18080983992042</Timestamp><Current dt:dt="r8">0</Current><DateUtc dt:dt="string">2023-01-07T04:14:11Z</DateUtc></FrequencyChange></FrequencyChanges></Clock>\n	Wisconsin-1151-4	60.000	1.0.0.253	1	-825708126	Full	3.0.3.80	3.0.3.80	01-07-2023	1/7/2023 4:14:12 AM	12:14:12	Keyboard	Keyboard	Keyboard	3.0.3.82	Keyboard	3					2	1	2		BlockProc2	List2	1											2	1	1				ShapeProc2	List4											10	Button1.png	Button2.png	Button3.png	Button4.png	Redtriangle3.png							{button2}	0							0	TrialProc	ShapeList2				7	1	10	1	{button2}	Button	9	50	264277	0	{Button2}	964	265241	Shape
Wisconsin	1151	4	<?xml version="1.0"?>\n<Clock xmlns:dt="urn:schemas-microsoft-com:datatypes"><Description dt:dt="string">E-Prime Primary Realtime Clock</Description><StartTime><Timestamp dt:dt="int">0</Timestamp><DateUtc dt:dt="string">2023-01-07T04:14:11Z</DateUtc></StartTime><FrequencyChanges><FrequencyChange><Frequency dt:dt="r8">10000000</Frequency><Timestamp dt:dt="r8">18080983992042</Timestamp><Current dt:dt="r8">0</Current><DateUtc dt:dt="string">2023-01-07T04:14:11Z</DateUtc></FrequencyChange></FrequencyChanges></Clock>\n	Wisconsin-1151-4	60.000	1.0.0.253	1	-825708126	Full	3.0.3.80	3.0.3.80	01-07-2023	1/7/2023 4:14:12 AM	12:14:12	Keyboard	Keyboard	Keyboard	3.0.3.82	Keyboard	3					2	1	2		BlockProc2	List2	2											3	1	2				NumberProc2	List4											1	Button1.png	Button2.png	Button3.png	Button4.png	Bluecross3.png							{button3}	0				1	1	1	0	TrialProc	NumberList2							1	{button3}	Button	9	33	267826	0	{Button3}	822	268648	number
Wisconsin	1151	4	<?xml version="1.0"?>\n<Clock xmlns:dt="urn:schemas-microsoft-com:datatypes"><Description dt:dt="string">E-Prime Primary Realtime Clock</Description><StartTime><Timestamp dt:dt="int">0</Timestamp><DateUtc dt:dt="string">2023-01-07T04:14:11Z</DateUtc></StartTime><FrequencyChanges><FrequencyChange><Frequency dt:dt="r8">10000000</Frequency><Timestamp dt:dt="r8">18080983992042</Timestamp><Current dt:dt="r8">0</Current><DateUtc dt:dt="string">2023-01-07T04:14:11Z</DateUtc></FrequencyChange></FrequencyChanges></Clock>\n	Wisconsin-1151-4	60.000	1.0.0.253	1	-825708126	Full	3.0.3.80	3.0.3.80	01-07-2023	1/7/2023 4:14:12 AM	12:14:12	Keyboard	Keyboard	Keyboard	3.0.3.82	Keyboard	3					2	1	2		BlockProc2	List2	2											3	1	2				NumberProc2	List4											2	Button1.png	Button2.png	Button3.png	Button4.png	Bluestar4.png							{button2}	0				2	1	2	0	TrialProc	NumberList2							0	{button2}	Button	10	33	271225	0	{Button4}	1760	272985	number
Wisconsin	1151	4	<?xml version="1.0"?>\n<Clock xmlns:dt="urn:schemas-microsoft-com:datatypes"><Description dt:dt="string">E-Prime Primary Realtime Clock</Description><StartTime><Timestamp dt:dt="int">0</Timestamp><DateUtc dt:dt="string">2023-01-07T04:14:11Z</DateUtc></StartTime><FrequencyChanges><FrequencyChange><Frequency dt:dt="r8">10000000</Frequency><Timestamp dt:dt="r8">18080983992042</Timestamp><Current dt:dt="r8">0</Current><DateUtc dt:dt="string">2023-01-07T04:14:11Z</DateUtc></FrequencyChange></FrequencyChanges></Clock>\n	Wisconsin-1151-4	60.000	1.0.0.253	1	-825708126	Full	3.0.3.80	3.0.3.80	01-07-2023	1/7/2023 4:14:12 AM	12:14:12	Keyboard	Keyboard	Keyboard	3.0.3.82	Keyboard	3					2	1	2		BlockProc2	List2	2											3	1	2				NumberProc2	List4											3	Button1.png	Button2.png	Button3.png	Button4.png	Bluetriangle4.png							{button2}	0				3	1	3	0	TrialProc	NumberList2							1	{button2}	Button	2	33	275574	0	{Button2}	1099	276673	number
Wisconsin	1151	4	<?xml version="1.0"?>\n<Clock xmlns:dt="urn:schemas-microsoft-com:datatypes"><Description dt:dt="string">E-Prime Primary Realtime Clock</Description><StartTime><Timestamp dt:dt="int">0</Timestamp><DateUtc dt:dt="string">2023-01-07T04:14:11Z</DateUtc></StartTime><FrequencyChanges><FrequencyChange><Frequency dt:dt="r8">10000000</Frequency><Timestamp dt:dt="r8">18080983992042</Timestamp><Current dt:dt="r8">0</Current><DateUtc dt:dt="string">2023-01-07T04:14:11Z</DateUtc></FrequencyChange></FrequencyChanges></Clock>\n	Wisconsin-1151-4	60.000	1.0.0.253	1	-825708126	Full	3.0.3.80	3.0.3.80	01-07-2023	1/7/2023 4:14:12 AM	12:14:12	Keyboard	Keyboard	Keyboard	3.0.3.82	Keyboard	3					2	1	2		BlockProc2	List2	2											3	1	2				NumberProc2	List4											4	Button1.png	Button2.png	Button3.png	Button4.png	Greencross2.png							{button1}	0				4	1	4	0	TrialProc	NumberList2							1	{button1}	Button	1	33	279257	0	{Button1}	744	280001	number
Wisconsin	1151	4	<?xml version="1.0"?>\n<Clock xmlns:dt="urn:schemas-microsoft-com:datatypes"><Description dt:dt="string">E-Prime Primary Realtime Clock</Description><StartTime><Timestamp dt:dt="int">0</Timestamp><DateUtc dt:dt="string">2023-01-07T04:14:11Z</DateUtc></StartTime><FrequencyChanges><FrequencyChange><Frequency dt:dt="r8">10000000</Frequency><Timestamp dt:dt="r8">18080983992042</Timestamp><Current dt:dt="r8">0</Current><DateUtc dt:dt="string">2023-01-07T04:14:11Z</DateUtc></FrequencyChange></FrequencyChanges></Clock>\n	Wisconsin-1151-4	60.000	1.0.0.253	1	-825708126	Full	3.0.3.80	3.0.3.80	01-07-2023	1/7/2023 4:14:12 AM	12:14:12	Keyboard	Keyboard	Keyboard	3.0.3.82	Keyboard	3					2	1	2		BlockProc2	List2	2											3	1	2				NumberProc2	List4											5	Button1.png	Button2.png	Button3.png	Button4.png	Greenstar1.png							{button4}	0				5	1	5	0	TrialProc	NumberList2							1	{button4}	Button	1	33	282573	0	{Button4}	1148	283721	number
Wisconsin	1151	4	<?xml version="1.0"?>\n<Clock xmlns:dt="urn:schemas-microsoft-com:datatypes"><Description dt:dt="string">E-Prime Primary Realtime Clock</Description><StartTime><Timestamp dt:dt="int">0</Timestamp><DateUtc dt:dt="string">2023-01-07T04:14:11Z</DateUtc></StartTime><FrequencyChanges><FrequencyChange><Frequency dt:dt="r8">10000000</Frequency><Timestamp dt:dt="r8">18080983992042</Timestamp><Current dt:dt="r8">0</Current><DateUtc dt:dt="string">2023-01-07T04:14:11Z</DateUtc></FrequencyChange></FrequencyChanges></Clock>\n	Wisconsin-1151-4	60.000	1.0.0.253	1	-825708126	Full	3.0.3.80	3.0.3.80	01-07-2023	1/7/2023 4:14:12 AM	12:14:12	Keyboard	Keyboard	Keyboard	3.0.3.82	Keyboard	3					2	1	2		BlockProc2	List2	2											3	1	2				NumberProc2	List4											6	Button1.png	Button2.png	Button3.png	Button4.png	Redstar1.png							{button4}	0				6	1	6	0	TrialProc	NumberList2							1	{button4}	Button	9	33	286305	0	{Button4}	1120	287425	number
Wisconsin	1151	4	<?xml version="1.0"?>\n<Clock xmlns:dt="urn:schemas-microsoft-com:datatypes"><Description dt:dt="string">E-Prime Primary Realtime Clock</Description><StartTime><Timestamp dt:dt="int">0</Timestamp><DateUtc dt:dt="string">2023-01-07T04:14:11Z</DateUtc></StartTime><FrequencyChanges><FrequencyChange><Frequency dt:dt="r8">10000000</Frequency><Timestamp dt:dt="r8">18080983992042</Timestamp><Current dt:dt="r8">0</Current><DateUtc dt:dt="string">2023-01-07T04:14:11Z</DateUtc></FrequencyChange></FrequencyChanges></Clock>\n	Wisconsin-1151-4	60.000	1.0.0.253	1	-825708126	Full	3.0.3.80	3.0.3.80	01-07-2023	1/7/2023 4:14:12 AM	12:14:12	Keyboard	Keyboard	Keyboard	3.0.3.82	Keyboard	3					2	1	2		BlockProc2	List2	2											3	1	2				NumberProc2	List4											7	Button1.png	Button2.png	Button3.png	Button4.png	Redtriangle2.png							{button1}	0				7	1	7	0	TrialProc	NumberList2							1	{button1}	Button	10	33	290004	0	{Button1}	1029	291033	number
Wisconsin	1151	4	<?xml version="1.0"?>\n<Clock xmlns:dt="urn:schemas-microsoft-com:datatypes"><Description dt:dt="string">E-Prime Primary Realtime Clock</Description><StartTime><Timestamp dt:dt="int">0</Timestamp><DateUtc dt:dt="string">2023-01-07T04:14:11Z</DateUtc></StartTime><FrequencyChanges><FrequencyChange><Frequency dt:dt="r8">10000000</Frequency><Timestamp dt:dt="r8">18080983992042</Timestamp><Current dt:dt="r8">0</Current><DateUtc dt:dt="string">2023-01-07T04:14:11Z</DateUtc></FrequencyChange></FrequencyChanges></Clock>\n	Wisconsin-1151-4	60.000	1.0.0.253	1	-825708126	Full	3.0.3.80	3.0.3.80	01-07-2023	1/7/2023 4:14:12 AM	12:14:12	Keyboard	Keyboard	Keyboard	3.0.3.82	Keyboard	3					2	1	2		BlockProc2	List2	2											3	1	2				NumberProc2	List4											8	Button1.png	Button2.png	Button3.png	Button4.png	yellowcircle4.png							{button2}	0				8	1	8	0	TrialProc	NumberList2							1	{button2}	Button	2	33	293603	0	{Button2}	734	294337	number
Wisconsin	1151	4	<?xml version="1.0"?>\n<Clock xmlns:dt="urn:schemas-microsoft-com:datatypes"><Description dt:dt="string">E-Prime Primary Realtime Clock</Description><StartTime><Timestamp dt:dt="int">0</Timestamp><DateUtc dt:dt="string">2023-01-07T04:14:11Z</DateUtc></StartTime><FrequencyChanges><FrequencyChange><Frequency dt:dt="r8">10000000</Frequency><Timestamp dt:dt="r8">18080983992042</Timestamp><Current dt:dt="r8">0</Current><DateUtc dt:dt="string">2023-01-07T04:14:11Z</DateUtc></FrequencyChange></FrequencyChanges></Clock>\n	Wisconsin-1151-4	60.000	1.0.0.253	1	-825708126	Full	3.0.3.80	3.0.3.80	01-07-2023	1/7/2023 4:14:12 AM	12:14:12	Keyboard	Keyboard	Keyboard	3.0.3.82	Keyboard	3					2	1	2		BlockProc2	List2	2											3	1	2				NumberProc2	List4											9	Button1.png	Button2.png	Button3.png	Button4.png	Yellowcross2.png							{button1}	0				9	1	9	0	TrialProc	NumberList2							1	{button1}	Button	1	33	296919	0	{Button1}	1066	297985	number
Wisconsin	1151	4	<?xml version="1.0"?>\n<Clock xmlns:dt="urn:schemas-microsoft-com:datatypes"><Description dt:dt="string">E-Prime Primary Realtime Clock</Description><StartTime><Timestamp dt:dt="int">0</Timestamp><DateUtc dt:dt="string">2023-01-07T04:14:11Z</DateUtc></StartTime><FrequencyChanges><FrequencyChange><Frequency dt:dt="r8">10000000</Frequency><Timestamp dt:dt="r8">18080983992042</Timestamp><Current dt:dt="r8">0</Current><DateUtc dt:dt="string">2023-01-07T04:14:11Z</DateUtc></FrequencyChange></FrequencyChanges></Clock>\n	Wisconsin-1151-4	60.000	1.0.0.253	1	-825708126	Full	3.0.3.80	3.0.3.80	01-07-2023	1/7/2023 4:14:12 AM	12:14:12	Keyboard	Keyboard	Keyboard	3.0.3.82	Keyboard	3					2	1	2		BlockProc2	List2	2											3	1	2				NumberProc2	List4											10	Button1.png	Button2.png	Button3.png	Button4.png	Yellowtriangle2.png							{button3}	0				10	1	10	0	TrialProc	NumberList2							0	{button3}	Button	2	33	300568	0	{Button2}	2009	302577	number
Wisconsin	1151	4	<?xml version="1.0"?>\n<Clock xmlns:dt="urn:schemas-microsoft-com:datatypes"><Description dt:dt="string">E-Prime Primary Realtime Clock</Description><StartTime><Timestamp dt:dt="int">0</Timestamp><DateUtc dt:dt="string">2023-01-07T04:14:11Z</DateUtc></StartTime><FrequencyChanges><FrequencyChange><Frequency dt:dt="r8">10000000</Frequency><Timestamp dt:dt="r8">18080983992042</Timestamp><Current dt:dt="r8">0</Current><DateUtc dt:dt="string">2023-01-07T04:14:11Z</DateUtc></FrequencyChange></FrequencyChanges></Clock>\n	Wisconsin-1151-4	60.000	1.0.0.253	1	-825708126	Full	3.0.3.80	3.0.3.80	01-07-2023	1/7/2023 4:14:12 AM	12:14:12	Keyboard	Keyboard	Keyboard	3.0.3.82	Keyboard	3					2	1	2		BlockProc2	List2	3											1	1	3				ColorProc2	List4											1	BUTTON1.png	BUTTON2.PNG	BUTTON3.png	BUTTON4.png	bluestar3.png				2	1	1	{Button4}	0							0	TrialProc	ColorList2							0	{Button4}	Button	10	33	305150	0	{Button3}	1419	306569	color
Wisconsin	1151	4	<?xml version="1.0"?>\n<Clock xmlns:dt="urn:schemas-microsoft-com:datatypes"><Description dt:dt="string">E-Prime Primary Realtime Clock</Description><StartTime><Timestamp dt:dt="int">0</Timestamp><DateUtc dt:dt="string">2023-01-07T04:14:11Z</DateUtc></StartTime><FrequencyChanges><FrequencyChange><Frequency dt:dt="r8">10000000</Frequency><Timestamp dt:dt="r8">18080983992042</Timestamp><Current dt:dt="r8">0</Current><DateUtc dt:dt="string">2023-01-07T04:14:11Z</DateUtc></FrequencyChange></FrequencyChanges></Clock>\n	Wisconsin-1151-4	60.000	1.0.0.253	1	-825708126	Full	3.0.3.80	3.0.3.80	01-07-2023	1/7/2023 4:14:12 AM	12:14:12	Keyboard	Keyboard	Keyboard	3.0.3.82	Keyboard	3					2	1	2		BlockProc2	List2	3											1	1	3				ColorProc2	List4											2	BUTTON1.png	BUTTON2.PNG	BUTTON3.png	BUTTON4.png	greentriangle2.png				6	1	2	{Button1}	0							0	TrialProc	ColorList2							0	{Button1}	Button	2	33	309149	0	{Button2}	1428	310577	color
Wisconsin	1151	4	<?xml version="1.0"?>\n<Clock xmlns:dt="urn:schemas-microsoft-com:datatypes"><Description dt:dt="string">E-Prime Primary Realtime Clock</Description><StartTime><Timestamp dt:dt="int">0</Timestamp><DateUtc dt:dt="string">2023-01-07T04:14:11Z</DateUtc></StartTime><FrequencyChanges><FrequencyChange><Frequency dt:dt="r8">10000000</Frequency><Timestamp dt:dt="r8">18080983992042</Timestamp><Current dt:dt="r8">0</Current><DateUtc dt:dt="string">2023-01-07T04:14:11Z</DateUtc></FrequencyChange></FrequencyChanges></Clock>\n	Wisconsin-1151-4	60.000	1.0.0.253	1	-825708126	Full	3.0.3.80	3.0.3.80	01-07-2023	1/7/2023 4:14:12 AM	12:14:12	Keyboard	Keyboard	Keyboard	3.0.3.82	Keyboard	3					2	1	2		BlockProc2	List2	3											1	1	3				ColorProc2	List4											3	BUTTON1.png	BUTTON2.PNG	BUTTON3.png	BUTTON4.png	yellowtriangle3.png				10	1	3	{Button2}	0							0	TrialProc	ColorList2							1	{Button2}	Button	11	33	313148	0	{Button2}	3445	316593	color
Wisconsin	1151	4	<?xml version="1.0"?>\n<Clock xmlns:dt="urn:schemas-microsoft-com:datatypes"><Description dt:dt="string">E-Prime Primary Realtime Clock</Description><StartTime><Timestamp dt:dt="int">0</Timestamp><DateUtc dt:dt="string">2023-01-07T04:14:11Z</DateUtc></StartTime><FrequencyChanges><FrequencyChange><Frequency dt:dt="r8">10000000</Frequency><Timestamp dt:dt="r8">18080983992042</Timestamp><Current dt:dt="r8">0</Current><DateUtc dt:dt="string">2023-01-07T04:14:11Z</DateUtc></FrequencyChange></FrequencyChanges></Clock>\n	Wisconsin-1151-4	60.000	1.0.0.253	1	-825708126	Full	3.0.3.80	3.0.3.80	01-07-2023	1/7/2023 4:14:12 AM	12:14:12	Keyboard	Keyboard	Keyboard	3.0.3.82	Keyboard	3					2	1	2		BlockProc2	List2	3											1	1	3				ColorProc2	List4											4	BUTTON1.png	BUTTON2.PNG	BUTTON3.png	BUTTON4.png	greenstar4.png				5	1	4	{Button1}	0							0	TrialProc	ColorList2							0	{Button1}	Button	2	33	319180	0	{Button4}	1733	320913	color
Wisconsin	1151	4	<?xml version="1.0"?>\n<Clock xmlns:dt="urn:schemas-microsoft-com:datatypes"><Description dt:dt="string">E-Prime Primary Realtime Clock</Description><StartTime><Timestamp dt:dt="int">0</Timestamp><DateUtc dt:dt="string">2023-01-07T04:14:11Z</DateUtc></StartTime><FrequencyChanges><FrequencyChange><Frequency dt:dt="r8">10000000</Frequency><Timestamp dt:dt="r8">18080983992042</Timestamp><Current dt:dt="r8">0</Current><DateUtc dt:dt="string">2023-01-07T04:14:11Z</DateUtc></FrequencyChange></FrequencyChanges></Clock>\n	Wisconsin-1151-4	60.000	1.0.0.253	1	-825708126	Full	3.0.3.80	3.0.3.80	01-07-2023	1/7/2023 4:14:12 AM	12:14:12	Keyboard	Keyboard	Keyboard	3.0.3.82	Keyboard	3					2	1	2		BlockProc2	List2	3											1	1	3				ColorProc2	List4											5	BUTTON1.png	BUTTON2.PNG	BUTTON3.png	BUTTON4.png	greencross4.png				4	1	5	{Button1}	0							0	TrialProc	ColorList2							0	{Button1}	Button	2	33	323496	0	{Button3}	1145	324641	color
Wisconsin	1151	4	<?xml version="1.0"?>\n<Clock xmlns:dt="urn:schemas-microsoft-com:datatypes"><Description dt:dt="string">E-Prime Primary Realtime Clock</Description><StartTime><Timestamp dt:dt="int">0</Timestamp><DateUtc dt:dt="string">2023-01-07T04:14:11Z</DateUtc></StartTime><FrequencyChanges><FrequencyChange><Frequency dt:dt="r8">10000000</Frequency><Timestamp dt:dt="r8">18080983992042</Timestamp><Current dt:dt="r8">0</Current><DateUtc dt:dt="string">2023-01-07T04:14:11Z</DateUtc></FrequencyChange></FrequencyChanges></Clock>\n	Wisconsin-1151-4	60.000	1.0.0.253	1	-825708126	Full	3.0.3.80	3.0.3.80	01-07-2023	1/7/2023 4:14:12 AM	12:14:12	Keyboard	Keyboard	Keyboard	3.0.3.82	Keyboard	3					2	1	2		BlockProc2	List2	3											1	1	3				ColorProc2	List4											6	BUTTON1.png	BUTTON2.PNG	BUTTON3.png	BUTTON4.png	Greencircle1.png				3	1	6	{Button1}	0							0	TrialProc	ColorList2							1	{Button1}	Button	10	50	327245	0	{Button1}	1524	328769	color
Wisconsin	1151	4	<?xml version="1.0"?>\n<Clock xmlns:dt="urn:schemas-microsoft-com:datatypes"><Description dt:dt="string">E-Prime Primary Realtime Clock</Description><StartTime><Timestamp dt:dt="int">0</Timestamp><DateUtc dt:dt="string">2023-01-07T04:14:11Z</DateUtc></StartTime><FrequencyChanges><FrequencyChange><Frequency dt:dt="r8">10000000</Frequency><Timestamp dt:dt="r8">18080983992042</Timestamp><Current dt:dt="r8">0</Current><DateUtc dt:dt="string">2023-01-07T04:14:11Z</DateUtc></FrequencyChange></FrequencyChanges></Clock>\n	Wisconsin-1151-4	60.000	1.0.0.253	1	-825708126	Full	3.0.3.80	3.0.3.80	01-07-2023	1/7/2023 4:14:12 AM	12:14:12	Keyboard	Keyboard	Keyboard	3.0.3.82	Keyboard	3					2	1	2		BlockProc2	List2	3											1	1	3				ColorProc2	List4											7	BUTTON1.png	BUTTON2.PNG	BUTTON3.png	BUTTON4.png	yellowcircle2.png				9	1	7	{Button2}	0							0	TrialProc	ColorList2							0	{Button2}	Button	9	33	331344	0	{Button1}	896	332240	color
Wisconsin	1151	4	<?xml version="1.0"?>\n<Clock xmlns:dt="urn:schemas-microsoft-com:datatypes"><Description dt:dt="string">E-Prime Primary Realtime Clock</Description><StartTime><Timestamp dt:dt="int">0</Timestamp><DateUtc dt:dt="string">2023-01-07T04:14:11Z</DateUtc></StartTime><FrequencyChanges><FrequencyChange><Frequency dt:dt="r8">10000000</Frequency><Timestamp dt:dt="r8">18080983992042</Timestamp><Current dt:dt="r8">0</Current><DateUtc dt:dt="string">2023-01-07T04:14:11Z</DateUtc></FrequencyChange></FrequencyChanges></Clock>\n	Wisconsin-1151-4	60.000	1.0.0.253	1	-825708126	Full	3.0.3.80	3.0.3.80	01-07-2023	1/7/2023 4:14:12 AM	12:14:12	Keyboard	Keyboard	Keyboard	3.0.3.82	Keyboard	3					2	1	2		BlockProc2	List2	3											1	1	3				ColorProc2	List4											8	BUTTON1.png	BUTTON2.PNG	BUTTON3.png	BUTTON4.png	Redcircle2.png				7	1	8	{Button3}	0							0	TrialProc	ColorList2							0	{Button3}	Button	9	50	334843	0	{Button1}	1198	336041	color
Wisconsin	1151	4	<?xml version="1.0"?>\n<Clock xmlns:dt="urn:schemas-microsoft-com:datatypes"><Description dt:dt="string">E-Prime Primary Realtime Clock</Description><StartTime><Timestamp dt:dt="int">0</Timestamp><DateUtc dt:dt="string">2023-01-07T04:14:11Z</DateUtc></StartTime><FrequencyChanges><FrequencyChange><Frequency dt:dt="r8">10000000</Frequency><Timestamp dt:dt="r8">18080983992042</Timestamp><Current dt:dt="r8">0</Current><DateUtc dt:dt="string">2023-01-07T04:14:11Z</DateUtc></FrequencyChange></FrequencyChanges></Clock>\n	Wisconsin-1151-4	60.000	1.0.0.253	1	-825708126	Full	3.0.3.80	3.0.3.80	01-07-2023	1/7/2023 4:14:12 AM	12:14:12	Keyboard	Keyboard	Keyboard	3.0.3.82	Keyboard	3					2	1	2		BlockProc2	List2	3											1	1	3				ColorProc2	List4											9	BUTTON1.png	BUTTON2.PNG	BUTTON3.png	BUTTON4.png	redstar4.png				8	1	9	{Button3}	0							0	TrialProc	ColorList2							1	{Button3}	Button	9	34	338626	0	{Button3}	1415	340041	color
Wisconsin	1151	4	<?xml version="1.0"?>\n<Clock xmlns:dt="urn:schemas-microsoft-com:datatypes"><Description dt:dt="string">E-Prime Primary Realtime Clock</Description><StartTime><Timestamp dt:dt="int">0</Timestamp><DateUtc dt:dt="string">2023-01-07T04:14:11Z</DateUtc></StartTime><FrequencyChanges><FrequencyChange><Frequency dt:dt="r8">10000000</Frequency><Timestamp dt:dt="r8">18080983992042</Timestamp><Current dt:dt="r8">0</Current><DateUtc dt:dt="string">2023-01-07T04:14:11Z</DateUtc></FrequencyChange></FrequencyChanges></Clock>\n	Wisconsin-1151-4	60.000	1.0.0.253	1	-825708126	Full	3.0.3.80	3.0.3.80	01-07-2023	1/7/2023 4:14:12 AM	12:14:12	Keyboard	Keyboard	Keyboard	3.0.3.82	Keyboard	3					2	1	2		BlockProc2	List2	3											1	1	3				ColorProc2	List4											10	BUTTON1.png	BUTTON2.PNG	BUTTON3.png	BUTTON4.png	bluecross1.png				1	1	10	{Button4}	0							0	TrialProc	ColorList2							1	{Button4}	Button	8	34	342625	0	{Button4}	1775	344400	color
