ExperimentName	Subject	Session	Clock.Information	DataFile.Basename	Display.RefreshRate	ExperimentVersion	Group	RandomSeed	RuntimeCapabilities	RuntimeVersion	RuntimeVersionExpected	SessionDate	SessionStartDateTimeUtc	SessionTime	StudioVersion	Block	List1	List1.Cycle	List1.Sample	List3	List3.Cycle	List3.Sample	Procedure[Block]	Running[Block]	Trial	CardIMG1[Trial]	CardIMG2[Trial]	CardIMG3[Trial]	CardIMG4[Trial]	CardStim[Trial]	Category	CorrectAnswer[Trial]	FeedbackDisplay2.ACC	FeedbackDisplay2.CRESP	FeedbackDisplay2.DurationError	FeedbackDisplay2.OnsetDelay	FeedbackDisplay2.OnsetTime	FeedbackDisplay2.OnsetToOnsetTime	FeedbackDisplay2.RESP	FeedbackDisplay2.RT	FeedbackDisplay2.RTTime	List2	List2.Cycle	List2.Sample	List4	List4.Cycle	List4.Sample	PracticeList	PracticeList.Cycle	PracticeList.Sample	Procedure[Trial]	Running[Trial]	Slide5.ACC	Slide5.CRESP	Slide5.DurationError	Slide5.OnsetDelay	Slide5.OnsetTime	Slide5.OnsetToOnsetTime	Slide5.RESP	Slide5.RT	SubTrial	CardIMG1[SubTrial]	CardIMG2[SubTrial]	CardIMG3[SubTrial]	CardIMG4[SubTrial]	CardStim[SubTrial]	ColorList	ColorList.Cycle	ColorList.Sample	ColorList2	ColorList2.Cycle	ColorList2.Sample	CorrectAnswer[SubTrial]	NonPerseverativeError	NumberList	NumberList.Cycle	NumberList.Sample	NumberList1	NumberList1.Cycle	NumberList1.Sample	PerseverativeError	Procedure[SubTrial]	Running[SubTrial]	ShapeList	ShapeList.Cycle	ShapeList.Sample	ShapeList1	ShapeList1.Cycle	ShapeList1.Sample	Stimulus.ACC	Stimulus.CRESP	Stimulus.DurationError	Stimulus.OnsetDelay	Stimulus.OnsetTime	Stimulus.OnsetToOnsetTime	Stimulus.RESP	Stimulus.RT	TrialType
Wisconsin	1176	2	<?xml version="1.0"?>\n<Clock xmlns:dt="urn:schemas-microsoft-com:datatypes"><Description dt:dt="string">E-Prime Primary Realtime Clock</Description><StartTime><Timestamp dt:dt="int">0</Timestamp><DateUtc dt:dt="string">2023-01-20T01:39:02Z</DateUtc></StartTime><FrequencyChanges><FrequencyChange><Frequency dt:dt="r8">2929814</Frequency><Timestamp dt:dt="r8">16248123046</Timestamp><Current dt:dt="r8">0</Current><DateUtc dt:dt="string">2023-01-20T01:39:02Z</DateUtc></FrequencyChange></FrequencyChanges></Clock>\n	Wisconsin-1176-2	59.957	1.0.0.560	1	-931173302	Professional	2.0.10.356	2.0.10.356	01-20-2023	1/20/2023 1:39:02 AM	09:39:02	2.0.10.252	1	1	1	1				Practicebloc	List1	1	Button1.png	Button2.png	Button3.png	Button4.png	Greencircle3.png	顏色	z	0		0	31	63978	0		0	0							1	1	1	PracticeTrialProc	PracticeList	1	z	0	1	62227	0	z	1717																																						
Wisconsin	1176	2	<?xml version="1.0"?>\n<Clock xmlns:dt="urn:schemas-microsoft-com:datatypes"><Description dt:dt="string">E-Prime Primary Realtime Clock</Description><StartTime><Timestamp dt:dt="int">0</Timestamp><DateUtc dt:dt="string">2023-01-20T01:39:02Z</DateUtc></StartTime><FrequencyChanges><FrequencyChange><Frequency dt:dt="r8">2929814</Frequency><Timestamp dt:dt="r8">16248123046</Timestamp><Current dt:dt="r8">0</Current><DateUtc dt:dt="string">2023-01-20T01:39:02Z</DateUtc></FrequencyChange></FrequencyChanges></Clock>\n	Wisconsin-1176-2	59.957	1.0.0.560	1	-931173302	Professional	2.0.10.356	2.0.10.356	01-20-2023	1/20/2023 1:39:02 AM	09:39:02	2.0.10.252	1	1	1	1				Practicebloc	List1	2	Button1.png	Button2.png	Button3.png	Button4.png	Redstar2.png	顏色	c	0		0	24	67648	0		0	0							2	1	2	PracticeTrialProc	PracticeList	1	c	0	1	66530	0	c	1094																																						
Wisconsin	1176	2	<?xml version="1.0"?>\n<Clock xmlns:dt="urn:schemas-microsoft-com:datatypes"><Description dt:dt="string">E-Prime Primary Realtime Clock</Description><StartTime><Timestamp dt:dt="int">0</Timestamp><DateUtc dt:dt="string">2023-01-20T01:39:02Z</DateUtc></StartTime><FrequencyChanges><FrequencyChange><Frequency dt:dt="r8">2929814</Frequency><Timestamp dt:dt="r8">16248123046</Timestamp><Current dt:dt="r8">0</Current><DateUtc dt:dt="string">2023-01-20T01:39:02Z</DateUtc></FrequencyChange></FrequencyChanges></Clock>\n	Wisconsin-1176-2	59.957	1.0.0.560	1	-931173302	Professional	2.0.10.356	2.0.10.356	01-20-2023	1/20/2023 1:39:02 AM	09:39:02	2.0.10.252	1	1	1	1				Practicebloc	List1	3	Button1.png	Button2.png	Button3.png	Button4.png	Bluetriangle1.png	形狀	x	0		0	20	71134	0		0	0							3	1	3	PracticeTrialProc	PracticeList	1	x	1	0	70199	0	x	913																																						
Wisconsin	1176	2	<?xml version="1.0"?>\n<Clock xmlns:dt="urn:schemas-microsoft-com:datatypes"><Description dt:dt="string">E-Prime Primary Realtime Clock</Description><StartTime><Timestamp dt:dt="int">0</Timestamp><DateUtc dt:dt="string">2023-01-20T01:39:02Z</DateUtc></StartTime><FrequencyChanges><FrequencyChange><Frequency dt:dt="r8">2929814</Frequency><Timestamp dt:dt="r8">16248123046</Timestamp><Current dt:dt="r8">0</Current><DateUtc dt:dt="string">2023-01-20T01:39:02Z</DateUtc></FrequencyChange></FrequencyChanges></Clock>\n	Wisconsin-1176-2	59.957	1.0.0.560	1	-931173302	Professional	2.0.10.356	2.0.10.356	01-20-2023	1/20/2023 1:39:02 AM	09:39:02	2.0.10.252	1	1	1	1				Practicebloc	List1	4	Button1.png	Button2.png	Button3.png	Button4.png	greenstar2.png	形狀	v	0		0	22	75553	0		0	0							4	1	4	PracticeTrialProc	PracticeList	1	v	0	0	73685	0	v	1843																																						
Wisconsin	1176	2	<?xml version="1.0"?>\n<Clock xmlns:dt="urn:schemas-microsoft-com:datatypes"><Description dt:dt="string">E-Prime Primary Realtime Clock</Description><StartTime><Timestamp dt:dt="int">0</Timestamp><DateUtc dt:dt="string">2023-01-20T01:39:02Z</DateUtc></StartTime><FrequencyChanges><FrequencyChange><Frequency dt:dt="r8">2929814</Frequency><Timestamp dt:dt="r8">16248123046</Timestamp><Current dt:dt="r8">0</Current><DateUtc dt:dt="string">2023-01-20T01:39:02Z</DateUtc></FrequencyChange></FrequencyChanges></Clock>\n	Wisconsin-1176-2	59.957	1.0.0.560	1	-931173302	Professional	2.0.10.356	2.0.10.356	01-20-2023	1/20/2023 1:39:02 AM	09:39:02	2.0.10.252	1	1	1	1				Practicebloc	List1	5	Button1.png	Button2.png	Button3.png	Button4.png	BlueCross4.png	數目	x	0		0	12	80407	0		0	0							5	1	5	PracticeTrialProc	PracticeList	0	x	0	0	78105	0	c	2286																																						
Wisconsin	1176	2	<?xml version="1.0"?>\n<Clock xmlns:dt="urn:schemas-microsoft-com:datatypes"><Description dt:dt="string">E-Prime Primary Realtime Clock</Description><StartTime><Timestamp dt:dt="int">0</Timestamp><DateUtc dt:dt="string">2023-01-20T01:39:02Z</DateUtc></StartTime><FrequencyChanges><FrequencyChange><Frequency dt:dt="r8">2929814</Frequency><Timestamp dt:dt="r8">16248123046</Timestamp><Current dt:dt="r8">0</Current><DateUtc dt:dt="string">2023-01-20T01:39:02Z</DateUtc></FrequencyChange></FrequencyChanges></Clock>\n	Wisconsin-1176-2	59.957	1.0.0.560	1	-931173302	Professional	2.0.10.356	2.0.10.356	01-20-2023	1/20/2023 1:39:02 AM	09:39:02	2.0.10.252	1	1	1	1				Practicebloc	List1	6	Button1.png	Button2.png	Button3.png	Button4.png	yellowcircle2.png	數目	z	0		0	12	85461	0		0	0							6	1	6	PracticeTrialProc	PracticeList	1	z	0	1	82959	0	z	2488																																						
Wisconsin	1176	2	<?xml version="1.0"?>\n<Clock xmlns:dt="urn:schemas-microsoft-com:datatypes"><Description dt:dt="string">E-Prime Primary Realtime Clock</Description><StartTime><Timestamp dt:dt="int">0</Timestamp><DateUtc dt:dt="string">2023-01-20T01:39:02Z</DateUtc></StartTime><FrequencyChanges><FrequencyChange><Frequency dt:dt="r8">2929814</Frequency><Timestamp dt:dt="r8">16248123046</Timestamp><Current dt:dt="r8">0</Current><DateUtc dt:dt="string">2023-01-20T01:39:02Z</DateUtc></FrequencyChange></FrequencyChanges></Clock>\n	Wisconsin-1176-2	59.957	1.0.0.560	1	-931173302	Professional	2.0.10.356	2.0.10.356	01-20-2023	1/20/2023 1:39:02 AM	09:39:02	2.0.10.252	2				1	1	1	BlockProc	List3	1																	3	1	1							ShapeProc	List2									1	Button1.png	Button2.png	Button3.png	Button4.png	Bluecircle2.png							z	0							0	TrialProc	ShapeList	1	1	1				1	z	0	1	154679	0	z	1645	Shape
Wisconsin	1176	2	<?xml version="1.0"?>\n<Clock xmlns:dt="urn:schemas-microsoft-com:datatypes"><Description dt:dt="string">E-Prime Primary Realtime Clock</Description><StartTime><Timestamp dt:dt="int">0</Timestamp><DateUtc dt:dt="string">2023-01-20T01:39:02Z</DateUtc></StartTime><FrequencyChanges><FrequencyChange><Frequency dt:dt="r8">2929814</Frequency><Timestamp dt:dt="r8">16248123046</Timestamp><Current dt:dt="r8">0</Current><DateUtc dt:dt="string">2023-01-20T01:39:02Z</DateUtc></FrequencyChange></FrequencyChanges></Clock>\n	Wisconsin-1176-2	59.957	1.0.0.560	1	-931173302	Professional	2.0.10.356	2.0.10.356	01-20-2023	1/20/2023 1:39:02 AM	09:39:02	2.0.10.252	2				1	1	1	BlockProc	List3	1																	3	1	1							ShapeProc	List2									2	Button1.png	Button2.png	Button3.png	Button4.png	Yellowstar4.png							v	1							0	TrialProc	ShapeList	10	1	2				0	v	0	1	158865	0	x	771	Shape
Wisconsin	1176	2	<?xml version="1.0"?>\n<Clock xmlns:dt="urn:schemas-microsoft-com:datatypes"><Description dt:dt="string">E-Prime Primary Realtime Clock</Description><StartTime><Timestamp dt:dt="int">0</Timestamp><DateUtc dt:dt="string">2023-01-20T01:39:02Z</DateUtc></StartTime><FrequencyChanges><FrequencyChange><Frequency dt:dt="r8">2929814</Frequency><Timestamp dt:dt="r8">16248123046</Timestamp><Current dt:dt="r8">0</Current><DateUtc dt:dt="string">2023-01-20T01:39:02Z</DateUtc></FrequencyChange></FrequencyChanges></Clock>\n	Wisconsin-1176-2	59.957	1.0.0.560	1	-931173302	Professional	2.0.10.356	2.0.10.356	01-20-2023	1/20/2023 1:39:02 AM	09:39:02	2.0.10.252	2				1	1	1	BlockProc	List3	1																	3	1	1							ShapeProc	List2									3	Button1.png	Button2.png	Button3.png	Button4.png	Bluecross4.png							c	0							0	TrialProc	ShapeList	2	1	3				1	c	0	1	162168	0	c	1260	Shape
Wisconsin	1176	2	<?xml version="1.0"?>\n<Clock xmlns:dt="urn:schemas-microsoft-com:datatypes"><Description dt:dt="string">E-Prime Primary Realtime Clock</Description><StartTime><Timestamp dt:dt="int">0</Timestamp><DateUtc dt:dt="string">2023-01-20T01:39:02Z</DateUtc></StartTime><FrequencyChanges><FrequencyChange><Frequency dt:dt="r8">2929814</Frequency><Timestamp dt:dt="r8">16248123046</Timestamp><Current dt:dt="r8">0</Current><DateUtc dt:dt="string">2023-01-20T01:39:02Z</DateUtc></FrequencyChange></FrequencyChanges></Clock>\n	Wisconsin-1176-2	59.957	1.0.0.560	1	-931173302	Professional	2.0.10.356	2.0.10.356	01-20-2023	1/20/2023 1:39:02 AM	09:39:02	2.0.10.252	2				1	1	1	BlockProc	List3	1																	3	1	1							ShapeProc	List2									4	Button1.png	Button2.png	Button3.png	Button4.png	Redtriangle1.png							x	0							0	TrialProc	ShapeList	7	1	4				1	x	0	0	165970	0	x	882	Shape
Wisconsin	1176	2	<?xml version="1.0"?>\n<Clock xmlns:dt="urn:schemas-microsoft-com:datatypes"><Description dt:dt="string">E-Prime Primary Realtime Clock</Description><StartTime><Timestamp dt:dt="int">0</Timestamp><DateUtc dt:dt="string">2023-01-20T01:39:02Z</DateUtc></StartTime><FrequencyChanges><FrequencyChange><Frequency dt:dt="r8">2929814</Frequency><Timestamp dt:dt="r8">16248123046</Timestamp><Current dt:dt="r8">0</Current><DateUtc dt:dt="string">2023-01-20T01:39:02Z</DateUtc></FrequencyChange></FrequencyChanges></Clock>\n	Wisconsin-1176-2	59.957	1.0.0.560	1	-931173302	Professional	2.0.10.356	2.0.10.356	01-20-2023	1/20/2023 1:39:02 AM	09:39:02	2.0.10.252	2				1	1	1	BlockProc	List3	1																	3	1	1							ShapeProc	List2									5	Button1.png	Button2.png	Button3.png	Button4.png	Redcross4.png							c	0							0	TrialProc	ShapeList	6	1	5				1	c	0	1	169390	0	c	757	Shape
Wisconsin	1176	2	<?xml version="1.0"?>\n<Clock xmlns:dt="urn:schemas-microsoft-com:datatypes"><Description dt:dt="string">E-Prime Primary Realtime Clock</Description><StartTime><Timestamp dt:dt="int">0</Timestamp><DateUtc dt:dt="string">2023-01-20T01:39:02Z</DateUtc></StartTime><FrequencyChanges><FrequencyChange><Frequency dt:dt="r8">2929814</Frequency><Timestamp dt:dt="r8">16248123046</Timestamp><Current dt:dt="r8">0</Current><DateUtc dt:dt="string">2023-01-20T01:39:02Z</DateUtc></FrequencyChange></FrequencyChanges></Clock>\n	Wisconsin-1176-2	59.957	1.0.0.560	1	-931173302	Professional	2.0.10.356	2.0.10.356	01-20-2023	1/20/2023 1:39:02 AM	09:39:02	2.0.10.252	2				1	1	1	BlockProc	List3	1																	3	1	1							ShapeProc	List2									6	Button1.png	Button2.png	Button3.png	Button4.png	Greentriangle4.png							x	0							0	TrialProc	ShapeList	4	1	6				1	x	0	1	172692	0	x	719	Shape
Wisconsin	1176	2	<?xml version="1.0"?>\n<Clock xmlns:dt="urn:schemas-microsoft-com:datatypes"><Description dt:dt="string">E-Prime Primary Realtime Clock</Description><StartTime><Timestamp dt:dt="int">0</Timestamp><DateUtc dt:dt="string">2023-01-20T01:39:02Z</DateUtc></StartTime><FrequencyChanges><FrequencyChange><Frequency dt:dt="r8">2929814</Frequency><Timestamp dt:dt="r8">16248123046</Timestamp><Current dt:dt="r8">0</Current><DateUtc dt:dt="string">2023-01-20T01:39:02Z</DateUtc></FrequencyChange></FrequencyChanges></Clock>\n	Wisconsin-1176-2	59.957	1.0.0.560	1	-931173302	Professional	2.0.10.356	2.0.10.356	01-20-2023	1/20/2023 1:39:02 AM	09:39:02	2.0.10.252	2				1	1	1	BlockProc	List3	1																	3	1	1							ShapeProc	List2									7	Button1.png	Button2.png	Button3.png	Button4.png	yellowcircle3.png							z	0							0	TrialProc	ShapeList	8	1	7				1	z	1	0	175944	0	z	843	Shape
Wisconsin	1176	2	<?xml version="1.0"?>\n<Clock xmlns:dt="urn:schemas-microsoft-com:datatypes"><Description dt:dt="string">E-Prime Primary Realtime Clock</Description><StartTime><Timestamp dt:dt="int">0</Timestamp><DateUtc dt:dt="string">2023-01-20T01:39:02Z</DateUtc></StartTime><FrequencyChanges><FrequencyChange><Frequency dt:dt="r8">2929814</Frequency><Timestamp dt:dt="r8">16248123046</Timestamp><Current dt:dt="r8">0</Current><DateUtc dt:dt="string">2023-01-20T01:39:02Z</DateUtc></FrequencyChange></FrequencyChanges></Clock>\n	Wisconsin-1176-2	59.957	1.0.0.560	1	-931173302	Professional	2.0.10.356	2.0.10.356	01-20-2023	1/20/2023 1:39:02 AM	09:39:02	2.0.10.252	2				1	1	1	BlockProc	List3	1																	3	1	1							ShapeProc	List2									8	Button1.png	Button2.png	Button3.png	Button4.png	Greencross1.png							c	0							0	TrialProc	ShapeList	3	1	8				1	c	0	0	179330	0	c	721	Shape
Wisconsin	1176	2	<?xml version="1.0"?>\n<Clock xmlns:dt="urn:schemas-microsoft-com:datatypes"><Description dt:dt="string">E-Prime Primary Realtime Clock</Description><StartTime><Timestamp dt:dt="int">0</Timestamp><DateUtc dt:dt="string">2023-01-20T01:39:02Z</DateUtc></StartTime><FrequencyChanges><FrequencyChange><Frequency dt:dt="r8">2929814</Frequency><Timestamp dt:dt="r8">16248123046</Timestamp><Current dt:dt="r8">0</Current><DateUtc dt:dt="string">2023-01-20T01:39:02Z</DateUtc></FrequencyChange></FrequencyChanges></Clock>\n	Wisconsin-1176-2	59.957	1.0.0.560	1	-931173302	Professional	2.0.10.356	2.0.10.356	01-20-2023	1/20/2023 1:39:02 AM	09:39:02	2.0.10.252	2				1	1	1	BlockProc	List3	1																	3	1	1							ShapeProc	List2									9	Button1.png	Button2.png	Button3.png	Button4.png	Yellowstar1.png							v	0							0	TrialProc	ShapeList	9	1	9				1	v	0	1	182583	0	v	988	Shape
Wisconsin	1176	2	<?xml version="1.0"?>\n<Clock xmlns:dt="urn:schemas-microsoft-com:datatypes"><Description dt:dt="string">E-Prime Primary Realtime Clock</Description><StartTime><Timestamp dt:dt="int">0</Timestamp><DateUtc dt:dt="string">2023-01-20T01:39:02Z</DateUtc></StartTime><FrequencyChanges><FrequencyChange><Frequency dt:dt="r8">2929814</Frequency><Timestamp dt:dt="r8">16248123046</Timestamp><Current dt:dt="r8">0</Current><DateUtc dt:dt="string">2023-01-20T01:39:02Z</DateUtc></FrequencyChange></FrequencyChanges></Clock>\n	Wisconsin-1176-2	59.957	1.0.0.560	1	-931173302	Professional	2.0.10.356	2.0.10.356	01-20-2023	1/20/2023 1:39:02 AM	09:39:02	2.0.10.252	2				1	1	1	BlockProc	List3	1																	3	1	1							ShapeProc	List2									10	Button1.png	Button2.png	Button3.png	Button4.png	Redcross1.png							c	0							0	TrialProc	ShapeList	5	1	10				1	c	0	1	186102	0	c	685	Shape
Wisconsin	1176	2	<?xml version="1.0"?>\n<Clock xmlns:dt="urn:schemas-microsoft-com:datatypes"><Description dt:dt="string">E-Prime Primary Realtime Clock</Description><StartTime><Timestamp dt:dt="int">0</Timestamp><DateUtc dt:dt="string">2023-01-20T01:39:02Z</DateUtc></StartTime><FrequencyChanges><FrequencyChange><Frequency dt:dt="r8">2929814</Frequency><Timestamp dt:dt="r8">16248123046</Timestamp><Current dt:dt="r8">0</Current><DateUtc dt:dt="string">2023-01-20T01:39:02Z</DateUtc></FrequencyChange></FrequencyChanges></Clock>\n	Wisconsin-1176-2	59.957	1.0.0.560	1	-931173302	Professional	2.0.10.356	2.0.10.356	01-20-2023	1/20/2023 1:39:02 AM	09:39:02	2.0.10.252	2				1	1	1	BlockProc	List3	2																	1	1	2							ColorProc	List2									1	BUTTON1.png	BUTTON2.PNG	BUTTON3.png	BUTTON4.png	yellowstar3.png	10	1	1				x	1							0	TrialProc	ColorList							0	x	0	1	189321	0	v	1002	color
Wisconsin	1176	2	<?xml version="1.0"?>\n<Clock xmlns:dt="urn:schemas-microsoft-com:datatypes"><Description dt:dt="string">E-Prime Primary Realtime Clock</Description><StartTime><Timestamp dt:dt="int">0</Timestamp><DateUtc dt:dt="string">2023-01-20T01:39:02Z</DateUtc></StartTime><FrequencyChanges><FrequencyChange><Frequency dt:dt="r8">2929814</Frequency><Timestamp dt:dt="r8">16248123046</Timestamp><Current dt:dt="r8">0</Current><DateUtc dt:dt="string">2023-01-20T01:39:02Z</DateUtc></FrequencyChange></FrequencyChanges></Clock>\n	Wisconsin-1176-2	59.957	1.0.0.560	1	-931173302	Professional	2.0.10.356	2.0.10.356	01-20-2023	1/20/2023 1:39:02 AM	09:39:02	2.0.10.252	2				1	1	1	BlockProc	List3	2																	1	1	2							ColorProc	List2									2	BUTTON1.png	BUTTON2.PNG	BUTTON3.png	BUTTON4.png	greentriangle1.png	6	1	2				z	1							0	TrialProc	ColorList							0	z	0	1	192857	0	v	1257	color
Wisconsin	1176	2	<?xml version="1.0"?>\n<Clock xmlns:dt="urn:schemas-microsoft-com:datatypes"><Description dt:dt="string">E-Prime Primary Realtime Clock</Description><StartTime><Timestamp dt:dt="int">0</Timestamp><DateUtc dt:dt="string">2023-01-20T01:39:02Z</DateUtc></StartTime><FrequencyChanges><FrequencyChange><Frequency dt:dt="r8">2929814</Frequency><Timestamp dt:dt="r8">16248123046</Timestamp><Current dt:dt="r8">0</Current><DateUtc dt:dt="string">2023-01-20T01:39:02Z</DateUtc></FrequencyChange></FrequencyChanges></Clock>\n	Wisconsin-1176-2	59.957	1.0.0.560	1	-931173302	Professional	2.0.10.356	2.0.10.356	01-20-2023	1/20/2023 1:39:02 AM	09:39:02	2.0.10.252	2				1	1	1	BlockProc	List3	2																	1	1	2							ColorProc	List2									3	BUTTON1.png	BUTTON2.PNG	BUTTON3.png	BUTTON4.png	greencircle3.png	4	1	3				z	0							0	TrialProc	ColorList							1	z	0	1	196643	0	z	1967	color
Wisconsin	1176	2	<?xml version="1.0"?>\n<Clock xmlns:dt="urn:schemas-microsoft-com:datatypes"><Description dt:dt="string">E-Prime Primary Realtime Clock</Description><StartTime><Timestamp dt:dt="int">0</Timestamp><DateUtc dt:dt="string">2023-01-20T01:39:02Z</DateUtc></StartTime><FrequencyChanges><FrequencyChange><Frequency dt:dt="r8">2929814</Frequency><Timestamp dt:dt="r8">16248123046</Timestamp><Current dt:dt="r8">0</Current><DateUtc dt:dt="string">2023-01-20T01:39:02Z</DateUtc></FrequencyChange></FrequencyChanges></Clock>\n	Wisconsin-1176-2	59.957	1.0.0.560	1	-931173302	Professional	2.0.10.356	2.0.10.356	01-20-2023	1/20/2023 1:39:02 AM	09:39:02	2.0.10.252	2				1	1	1	BlockProc	List3	2																	1	1	2							ColorProc	List2									4	BUTTON1.png	BUTTON2.PNG	BUTTON3.png	BUTTON4.png	bluecircle1.png	1	1	4				v	0							0	TrialProc	ColorList							1	v	1	0	201146	0	v	888	color
Wisconsin	1176	2	<?xml version="1.0"?>\n<Clock xmlns:dt="urn:schemas-microsoft-com:datatypes"><Description dt:dt="string">E-Prime Primary Realtime Clock</Description><StartTime><Timestamp dt:dt="int">0</Timestamp><DateUtc dt:dt="string">2023-01-20T01:39:02Z</DateUtc></StartTime><FrequencyChanges><FrequencyChange><Frequency dt:dt="r8">2929814</Frequency><Timestamp dt:dt="r8">16248123046</Timestamp><Current dt:dt="r8">0</Current><DateUtc dt:dt="string">2023-01-20T01:39:02Z</DateUtc></FrequencyChange></FrequencyChanges></Clock>\n	Wisconsin-1176-2	59.957	1.0.0.560	1	-931173302	Professional	2.0.10.356	2.0.10.356	01-20-2023	1/20/2023 1:39:02 AM	09:39:02	2.0.10.252	2				1	1	1	BlockProc	List3	2																	1	1	2							ColorProc	List2									5	BUTTON1.png	BUTTON2.PNG	BUTTON3.png	BUTTON4.png	yellowcircle1.png	9	1	5				x	0							0	TrialProc	ColorList							1	x	0	1	204566	0	x	732	color
Wisconsin	1176	2	<?xml version="1.0"?>\n<Clock xmlns:dt="urn:schemas-microsoft-com:datatypes"><Description dt:dt="string">E-Prime Primary Realtime Clock</Description><StartTime><Timestamp dt:dt="int">0</Timestamp><DateUtc dt:dt="string">2023-01-20T01:39:02Z</DateUtc></StartTime><FrequencyChanges><FrequencyChange><Frequency dt:dt="r8">2929814</Frequency><Timestamp dt:dt="r8">16248123046</Timestamp><Current dt:dt="r8">0</Current><DateUtc dt:dt="string">2023-01-20T01:39:02Z</DateUtc></FrequencyChange></FrequencyChanges></Clock>\n	Wisconsin-1176-2	59.957	1.0.0.560	1	-931173302	Professional	2.0.10.356	2.0.10.356	01-20-2023	1/20/2023 1:39:02 AM	09:39:02	2.0.10.252	2				1	1	1	BlockProc	List3	2																	1	1	2							ColorProc	List2									6	BUTTON1.png	BUTTON2.PNG	BUTTON3.png	BUTTON4.png	bluecross2.png	2	1	6				v	0							0	TrialProc	ColorList							1	v	0	1	207835	0	v	1559	color
Wisconsin	1176	2	<?xml version="1.0"?>\n<Clock xmlns:dt="urn:schemas-microsoft-com:datatypes"><Description dt:dt="string">E-Prime Primary Realtime Clock</Description><StartTime><Timestamp dt:dt="int">0</Timestamp><DateUtc dt:dt="string">2023-01-20T01:39:02Z</DateUtc></StartTime><FrequencyChanges><FrequencyChange><Frequency dt:dt="r8">2929814</Frequency><Timestamp dt:dt="r8">16248123046</Timestamp><Current dt:dt="r8">0</Current><DateUtc dt:dt="string">2023-01-20T01:39:02Z</DateUtc></FrequencyChange></FrequencyChanges></Clock>\n	Wisconsin-1176-2	59.957	1.0.0.560	1	-931173302	Professional	2.0.10.356	2.0.10.356	01-20-2023	1/20/2023 1:39:02 AM	09:39:02	2.0.10.252	2				1	1	1	BlockProc	List3	2																	1	1	2							ColorProc	List2									7	BUTTON1.png	BUTTON2.PNG	BUTTON3.png	BUTTON4.png	redcircle3.png	8	1	7				c	0							0	TrialProc	ColorList							1	c	0	1	211921	0	c	849	color
Wisconsin	1176	2	<?xml version="1.0"?>\n<Clock xmlns:dt="urn:schemas-microsoft-com:datatypes"><Description dt:dt="string">E-Prime Primary Realtime Clock</Description><StartTime><Timestamp dt:dt="int">0</Timestamp><DateUtc dt:dt="string">2023-01-20T01:39:02Z</DateUtc></StartTime><FrequencyChanges><FrequencyChange><Frequency dt:dt="r8">2929814</Frequency><Timestamp dt:dt="r8">16248123046</Timestamp><Current dt:dt="r8">0</Current><DateUtc dt:dt="string">2023-01-20T01:39:02Z</DateUtc></FrequencyChange></FrequencyChanges></Clock>\n	Wisconsin-1176-2	59.957	1.0.0.560	1	-931173302	Professional	2.0.10.356	2.0.10.356	01-20-2023	1/20/2023 1:39:02 AM	09:39:02	2.0.10.252	2				1	1	1	BlockProc	List3	2																	1	1	2							ColorProc	List2									8	BUTTON1.png	BUTTON2.PNG	BUTTON3.png	BUTTON4.png	bluetriangle3.png	3	1	8				v	0							0	TrialProc	ColorList							1	v	0	1	215307	0	v	822	color
Wisconsin	1176	2	<?xml version="1.0"?>\n<Clock xmlns:dt="urn:schemas-microsoft-com:datatypes"><Description dt:dt="string">E-Prime Primary Realtime Clock</Description><StartTime><Timestamp dt:dt="int">0</Timestamp><DateUtc dt:dt="string">2023-01-20T01:39:02Z</DateUtc></StartTime><FrequencyChanges><FrequencyChange><Frequency dt:dt="r8">2929814</Frequency><Timestamp dt:dt="r8">16248123046</Timestamp><Current dt:dt="r8">0</Current><DateUtc dt:dt="string">2023-01-20T01:39:02Z</DateUtc></FrequencyChange></FrequencyChanges></Clock>\n	Wisconsin-1176-2	59.957	1.0.0.560	1	-931173302	Professional	2.0.10.356	2.0.10.356	01-20-2023	1/20/2023 1:39:02 AM	09:39:02	2.0.10.252	2				1	1	1	BlockProc	List3	2																	1	1	2							ColorProc	List2									9	BUTTON1.png	BUTTON2.PNG	BUTTON3.png	BUTTON4.png	greenstar2.png	5	1	9				z	0							0	TrialProc	ColorList							1	z	1	0	218659	0	z	686	color
Wisconsin	1176	2	<?xml version="1.0"?>\n<Clock xmlns:dt="urn:schemas-microsoft-com:datatypes"><Description dt:dt="string">E-Prime Primary Realtime Clock</Description><StartTime><Timestamp dt:dt="int">0</Timestamp><DateUtc dt:dt="string">2023-01-20T01:39:02Z</DateUtc></StartTime><FrequencyChanges><FrequencyChange><Frequency dt:dt="r8">2929814</Frequency><Timestamp dt:dt="r8">16248123046</Timestamp><Current dt:dt="r8">0</Current><DateUtc dt:dt="string">2023-01-20T01:39:02Z</DateUtc></FrequencyChange></FrequencyChanges></Clock>\n	Wisconsin-1176-2	59.957	1.0.0.560	1	-931173302	Professional	2.0.10.356	2.0.10.356	01-20-2023	1/20/2023 1:39:02 AM	09:39:02	2.0.10.252	2				1	1	1	BlockProc	List3	2																	1	1	2							ColorProc	List2									10	BUTTON1.png	BUTTON2.PNG	BUTTON3.png	BUTTON4.png	greentriangle3.png	7	1	10				z	0							0	TrialProc	ColorList							1	z	0	1	221879	0	z	1162	color
Wisconsin	1176	2	<?xml version="1.0"?>\n<Clock xmlns:dt="urn:schemas-microsoft-com:datatypes"><Description dt:dt="string">E-Prime Primary Realtime Clock</Description><StartTime><Timestamp dt:dt="int">0</Timestamp><DateUtc dt:dt="string">2023-01-20T01:39:02Z</DateUtc></StartTime><FrequencyChanges><FrequencyChange><Frequency dt:dt="r8">2929814</Frequency><Timestamp dt:dt="r8">16248123046</Timestamp><Current dt:dt="r8">0</Current><DateUtc dt:dt="string">2023-01-20T01:39:02Z</DateUtc></FrequencyChange></FrequencyChanges></Clock>\n	Wisconsin-1176-2	59.957	1.0.0.560	1	-931173302	Professional	2.0.10.356	2.0.10.356	01-20-2023	1/20/2023 1:39:02 AM	09:39:02	2.0.10.252	2				1	1	1	BlockProc	List3	3																	2	1	3							NumberProc	List2									1	Button1.png	Button2.png	Button3.png	Button4.png	Bluecircle4.png							x	1	1	1	1				0	TrialProc	NumberList							0	x	0	1	225581	0	v	996	number
Wisconsin	1176	2	<?xml version="1.0"?>\n<Clock xmlns:dt="urn:schemas-microsoft-com:datatypes"><Description dt:dt="string">E-Prime Primary Realtime Clock</Description><StartTime><Timestamp dt:dt="int">0</Timestamp><DateUtc dt:dt="string">2023-01-20T01:39:02Z</DateUtc></StartTime><FrequencyChanges><FrequencyChange><Frequency dt:dt="r8">2929814</Frequency><Timestamp dt:dt="r8">16248123046</Timestamp><Current dt:dt="r8">0</Current><DateUtc dt:dt="string">2023-01-20T01:39:02Z</DateUtc></FrequencyChange></FrequencyChanges></Clock>\n	Wisconsin-1176-2	59.957	1.0.0.560	1	-931173302	Professional	2.0.10.356	2.0.10.356	01-20-2023	1/20/2023 1:39:02 AM	09:39:02	2.0.10.252	2				1	1	1	BlockProc	List3	3																	2	1	3							NumberProc	List2									2	Button1.png	Button2.png	Button3.png	Button4.png	Bluestar2.png							z	0	2	1	2				0	TrialProc	NumberList							1	z	0	1	229117	0	z	1876	number
Wisconsin	1176	2	<?xml version="1.0"?>\n<Clock xmlns:dt="urn:schemas-microsoft-com:datatypes"><Description dt:dt="string">E-Prime Primary Realtime Clock</Description><StartTime><Timestamp dt:dt="int">0</Timestamp><DateUtc dt:dt="string">2023-01-20T01:39:02Z</DateUtc></StartTime><FrequencyChanges><FrequencyChange><Frequency dt:dt="r8">2929814</Frequency><Timestamp dt:dt="r8">16248123046</Timestamp><Current dt:dt="r8">0</Current><DateUtc dt:dt="string">2023-01-20T01:39:02Z</DateUtc></FrequencyChange></FrequencyChanges></Clock>\n	Wisconsin-1176-2	59.957	1.0.0.560	1	-931173302	Professional	2.0.10.356	2.0.10.356	01-20-2023	1/20/2023 1:39:02 AM	09:39:02	2.0.10.252	2				1	1	1	BlockProc	List3	3																	2	1	3							NumberProc	List2									3	Button1.png	Button2.png	Button3.png	Button4.png	Redcircle4.png							x	0	6	1	3				0	TrialProc	NumberList							1	x	0	1	233537	0	x	1728	number
Wisconsin	1176	2	<?xml version="1.0"?>\n<Clock xmlns:dt="urn:schemas-microsoft-com:datatypes"><Description dt:dt="string">E-Prime Primary Realtime Clock</Description><StartTime><Timestamp dt:dt="int">0</Timestamp><DateUtc dt:dt="string">2023-01-20T01:39:02Z</DateUtc></StartTime><FrequencyChanges><FrequencyChange><Frequency dt:dt="r8">2929814</Frequency><Timestamp dt:dt="r8">16248123046</Timestamp><Current dt:dt="r8">0</Current><DateUtc dt:dt="string">2023-01-20T01:39:02Z</DateUtc></FrequencyChange></FrequencyChanges></Clock>\n	Wisconsin-1176-2	59.957	1.0.0.560	1	-931173302	Professional	2.0.10.356	2.0.10.356	01-20-2023	1/20/2023 1:39:02 AM	09:39:02	2.0.10.252	2				1	1	1	BlockProc	List3	3																	2	1	3							NumberProc	List2									4	Button1.png	Button2.png	Button3.png	Button4.png	Greencircle4.png							x	0	4	1	4				0	TrialProc	NumberList							1	x	0	1	237807	0	x	1489	number
Wisconsin	1176	2	<?xml version="1.0"?>\n<Clock xmlns:dt="urn:schemas-microsoft-com:datatypes"><Description dt:dt="string">E-Prime Primary Realtime Clock</Description><StartTime><Timestamp dt:dt="int">0</Timestamp><DateUtc dt:dt="string">2023-01-20T01:39:02Z</DateUtc></StartTime><FrequencyChanges><FrequencyChange><Frequency dt:dt="r8">2929814</Frequency><Timestamp dt:dt="r8">16248123046</Timestamp><Current dt:dt="r8">0</Current><DateUtc dt:dt="string">2023-01-20T01:39:02Z</DateUtc></FrequencyChange></FrequencyChanges></Clock>\n	Wisconsin-1176-2	59.957	1.0.0.560	1	-931173302	Professional	2.0.10.356	2.0.10.356	01-20-2023	1/20/2023 1:39:02 AM	09:39:02	2.0.10.252	2				1	1	1	BlockProc	List3	3																	2	1	3							NumberProc	List2									5	Button1.png	Button2.png	Button3.png	Button4.png	Redtriangle4.png							x	0	8	1	5				0	TrialProc	NumberList							1	x	0	1	241827	0	x	1021	number
Wisconsin	1176	2	<?xml version="1.0"?>\n<Clock xmlns:dt="urn:schemas-microsoft-com:datatypes"><Description dt:dt="string">E-Prime Primary Realtime Clock</Description><StartTime><Timestamp dt:dt="int">0</Timestamp><DateUtc dt:dt="string">2023-01-20T01:39:02Z</DateUtc></StartTime><FrequencyChanges><FrequencyChange><Frequency dt:dt="r8">2929814</Frequency><Timestamp dt:dt="r8">16248123046</Timestamp><Current dt:dt="r8">0</Current><DateUtc dt:dt="string">2023-01-20T01:39:02Z</DateUtc></FrequencyChange></FrequencyChanges></Clock>\n	Wisconsin-1176-2	59.957	1.0.0.560	1	-931173302	Professional	2.0.10.356	2.0.10.356	01-20-2023	1/20/2023 1:39:02 AM	09:39:02	2.0.10.252	2				1	1	1	BlockProc	List3	3																	2	1	3							NumberProc	List2									6	Button1.png	Button2.png	Button3.png	Button4.png	Redstar2.png							z	0	7	1	6				0	TrialProc	NumberList							1	z	0	1	245379	0	z	2733	number
Wisconsin	1176	2	<?xml version="1.0"?>\n<Clock xmlns:dt="urn:schemas-microsoft-com:datatypes"><Description dt:dt="string">E-Prime Primary Realtime Clock</Description><StartTime><Timestamp dt:dt="int">0</Timestamp><DateUtc dt:dt="string">2023-01-20T01:39:02Z</DateUtc></StartTime><FrequencyChanges><FrequencyChange><Frequency dt:dt="r8">2929814</Frequency><Timestamp dt:dt="r8">16248123046</Timestamp><Current dt:dt="r8">0</Current><DateUtc dt:dt="string">2023-01-20T01:39:02Z</DateUtc></FrequencyChange></FrequencyChanges></Clock>\n	Wisconsin-1176-2	59.957	1.0.0.560	1	-931173302	Professional	2.0.10.356	2.0.10.356	01-20-2023	1/20/2023 1:39:02 AM	09:39:02	2.0.10.252	2				1	1	1	BlockProc	List3	3																	2	1	3							NumberProc	List2									7	Button1.png	Button2.png	Button3.png	Button4.png	Greencross3.png							c	0	5	1	7				0	TrialProc	NumberList							1	c	0	1	250650	0	c	1846	number
Wisconsin	1176	2	<?xml version="1.0"?>\n<Clock xmlns:dt="urn:schemas-microsoft-com:datatypes"><Description dt:dt="string">E-Prime Primary Realtime Clock</Description><StartTime><Timestamp dt:dt="int">0</Timestamp><DateUtc dt:dt="string">2023-01-20T01:39:02Z</DateUtc></StartTime><FrequencyChanges><FrequencyChange><Frequency dt:dt="r8">2929814</Frequency><Timestamp dt:dt="r8">16248123046</Timestamp><Current dt:dt="r8">0</Current><DateUtc dt:dt="string">2023-01-20T01:39:02Z</DateUtc></FrequencyChange></FrequencyChanges></Clock>\n	Wisconsin-1176-2	59.957	1.0.0.560	1	-931173302	Professional	2.0.10.356	2.0.10.356	01-20-2023	1/20/2023 1:39:02 AM	09:39:02	2.0.10.252	2				1	1	1	BlockProc	List3	3																	2	1	3							NumberProc	List2									8	Button1.png	Button2.png	Button3.png	Button4.png	Yellowcross3.png							c	0	10	1	8				0	TrialProc	NumberList							1	c	0	0	255036	0	c	2868	number
Wisconsin	1176	2	<?xml version="1.0"?>\n<Clock xmlns:dt="urn:schemas-microsoft-com:datatypes"><Description dt:dt="string">E-Prime Primary Realtime Clock</Description><StartTime><Timestamp dt:dt="int">0</Timestamp><DateUtc dt:dt="string">2023-01-20T01:39:02Z</DateUtc></StartTime><FrequencyChanges><FrequencyChange><Frequency dt:dt="r8">2929814</Frequency><Timestamp dt:dt="r8">16248123046</Timestamp><Current dt:dt="r8">0</Current><DateUtc dt:dt="string">2023-01-20T01:39:02Z</DateUtc></FrequencyChange></FrequencyChanges></Clock>\n	Wisconsin-1176-2	59.957	1.0.0.560	1	-931173302	Professional	2.0.10.356	2.0.10.356	01-20-2023	1/20/2023 1:39:02 AM	09:39:02	2.0.10.252	2				1	1	1	BlockProc	List3	3																	2	1	3							NumberProc	List2									9	Button1.png	Button2.png	Button3.png	Button4.png	Yellowcross1.png							v	0	9	1	9				0	TrialProc	NumberList							1	v	0	0	260440	0	v	1639	number
Wisconsin	1176	2	<?xml version="1.0"?>\n<Clock xmlns:dt="urn:schemas-microsoft-com:datatypes"><Description dt:dt="string">E-Prime Primary Realtime Clock</Description><StartTime><Timestamp dt:dt="int">0</Timestamp><DateUtc dt:dt="string">2023-01-20T01:39:02Z</DateUtc></StartTime><FrequencyChanges><FrequencyChange><Frequency dt:dt="r8">2929814</Frequency><Timestamp dt:dt="r8">16248123046</Timestamp><Current dt:dt="r8">0</Current><DateUtc dt:dt="string">2023-01-20T01:39:02Z</DateUtc></FrequencyChange></FrequencyChanges></Clock>\n	Wisconsin-1176-2	59.957	1.0.0.560	1	-931173302	Professional	2.0.10.356	2.0.10.356	01-20-2023	1/20/2023 1:39:02 AM	09:39:02	2.0.10.252	2				1	1	1	BlockProc	List3	3																	2	1	3							NumberProc	List2									10	Button1.png	Button2.png	Button3.png	Button4.png	Bluetriangle1.png							v	0	3	1	10				0	TrialProc	NumberList							1	v	0	1	264610	0	v	1133	number
Wisconsin	1176	2	<?xml version="1.0"?>\n<Clock xmlns:dt="urn:schemas-microsoft-com:datatypes"><Description dt:dt="string">E-Prime Primary Realtime Clock</Description><StartTime><Timestamp dt:dt="int">0</Timestamp><DateUtc dt:dt="string">2023-01-20T01:39:02Z</DateUtc></StartTime><FrequencyChanges><FrequencyChange><Frequency dt:dt="r8">2929814</Frequency><Timestamp dt:dt="r8">16248123046</Timestamp><Current dt:dt="r8">0</Current><DateUtc dt:dt="string">2023-01-20T01:39:02Z</DateUtc></FrequencyChange></FrequencyChanges></Clock>\n	Wisconsin-1176-2	59.957	1.0.0.560	1	-931173302	Professional	2.0.10.356	2.0.10.356	01-20-2023	1/20/2023 1:39:02 AM	09:39:02	2.0.10.252	3				2	1	2	BlockProc2	List3	1																				1	1	1				ColorProc2	List4									1	BUTTON1.png	BUTTON2.PNG	BUTTON3.png	BUTTON4.png	bluestar3.png				2	1	1	v	1							0	TrialProc	ColorList2							0	v	0	1	268280	0	c	1911	color
Wisconsin	1176	2	<?xml version="1.0"?>\n<Clock xmlns:dt="urn:schemas-microsoft-com:datatypes"><Description dt:dt="string">E-Prime Primary Realtime Clock</Description><StartTime><Timestamp dt:dt="int">0</Timestamp><DateUtc dt:dt="string">2023-01-20T01:39:02Z</DateUtc></StartTime><FrequencyChanges><FrequencyChange><Frequency dt:dt="r8">2929814</Frequency><Timestamp dt:dt="r8">16248123046</Timestamp><Current dt:dt="r8">0</Current><DateUtc dt:dt="string">2023-01-20T01:39:02Z</DateUtc></FrequencyChange></FrequencyChanges></Clock>\n	Wisconsin-1176-2	59.957	1.0.0.560	1	-931173302	Professional	2.0.10.356	2.0.10.356	01-20-2023	1/20/2023 1:39:02 AM	09:39:02	2.0.10.252	3				2	1	2	BlockProc2	List3	1																				1	1	1				ColorProc2	List4									2	BUTTON1.png	BUTTON2.PNG	BUTTON3.png	BUTTON4.png	Greencircle1.png				3	1	2	z	0							0	TrialProc	ColorList2							1	z	0	1	272733	0	z	1058	color
Wisconsin	1176	2	<?xml version="1.0"?>\n<Clock xmlns:dt="urn:schemas-microsoft-com:datatypes"><Description dt:dt="string">E-Prime Primary Realtime Clock</Description><StartTime><Timestamp dt:dt="int">0</Timestamp><DateUtc dt:dt="string">2023-01-20T01:39:02Z</DateUtc></StartTime><FrequencyChanges><FrequencyChange><Frequency dt:dt="r8">2929814</Frequency><Timestamp dt:dt="r8">16248123046</Timestamp><Current dt:dt="r8">0</Current><DateUtc dt:dt="string">2023-01-20T01:39:02Z</DateUtc></FrequencyChange></FrequencyChanges></Clock>\n	Wisconsin-1176-2	59.957	1.0.0.560	1	-931173302	Professional	2.0.10.356	2.0.10.356	01-20-2023	1/20/2023 1:39:02 AM	09:39:02	2.0.10.252	3				2	1	2	BlockProc2	List3	1																				1	1	1				ColorProc2	List4									3	BUTTON1.png	BUTTON2.PNG	BUTTON3.png	BUTTON4.png	yellowcircle2.png				9	1	3	x	1							0	TrialProc	ColorList2							0	x	0	1	276319	0	z	1232	color
Wisconsin	1176	2	<?xml version="1.0"?>\n<Clock xmlns:dt="urn:schemas-microsoft-com:datatypes"><Description dt:dt="string">E-Prime Primary Realtime Clock</Description><StartTime><Timestamp dt:dt="int">0</Timestamp><DateUtc dt:dt="string">2023-01-20T01:39:02Z</DateUtc></StartTime><FrequencyChanges><FrequencyChange><Frequency dt:dt="r8">2929814</Frequency><Timestamp dt:dt="r8">16248123046</Timestamp><Current dt:dt="r8">0</Current><DateUtc dt:dt="string">2023-01-20T01:39:02Z</DateUtc></FrequencyChange></FrequencyChanges></Clock>\n	Wisconsin-1176-2	59.957	1.0.0.560	1	-931173302	Professional	2.0.10.356	2.0.10.356	01-20-2023	1/20/2023 1:39:02 AM	09:39:02	2.0.10.252	3				2	1	2	BlockProc2	List3	1																				1	1	1				ColorProc2	List4									4	BUTTON1.png	BUTTON2.PNG	BUTTON3.png	BUTTON4.png	greenstar4.png				5	1	4	z	1							0	TrialProc	ColorList2							0	z	0	0	280088	0	x	1431	color
Wisconsin	1176	2	<?xml version="1.0"?>\n<Clock xmlns:dt="urn:schemas-microsoft-com:datatypes"><Description dt:dt="string">E-Prime Primary Realtime Clock</Description><StartTime><Timestamp dt:dt="int">0</Timestamp><DateUtc dt:dt="string">2023-01-20T01:39:02Z</DateUtc></StartTime><FrequencyChanges><FrequencyChange><Frequency dt:dt="r8">2929814</Frequency><Timestamp dt:dt="r8">16248123046</Timestamp><Current dt:dt="r8">0</Current><DateUtc dt:dt="string">2023-01-20T01:39:02Z</DateUtc></FrequencyChange></FrequencyChanges></Clock>\n	Wisconsin-1176-2	59.957	1.0.0.560	1	-931173302	Professional	2.0.10.356	2.0.10.356	01-20-2023	1/20/2023 1:39:02 AM	09:39:02	2.0.10.252	3				2	1	2	BlockProc2	List3	1																				1	1	1				ColorProc2	List4									5	BUTTON1.png	BUTTON2.PNG	BUTTON3.png	BUTTON4.png	bluecross1.png				1	1	5	v	0							0	TrialProc	ColorList2							1	v	0	1	284058	0	v	852	color
Wisconsin	1176	2	<?xml version="1.0"?>\n<Clock xmlns:dt="urn:schemas-microsoft-com:datatypes"><Description dt:dt="string">E-Prime Primary Realtime Clock</Description><StartTime><Timestamp dt:dt="int">0</Timestamp><DateUtc dt:dt="string">2023-01-20T01:39:02Z</DateUtc></StartTime><FrequencyChanges><FrequencyChange><Frequency dt:dt="r8">2929814</Frequency><Timestamp dt:dt="r8">16248123046</Timestamp><Current dt:dt="r8">0</Current><DateUtc dt:dt="string">2023-01-20T01:39:02Z</DateUtc></FrequencyChange></FrequencyChanges></Clock>\n	Wisconsin-1176-2	59.957	1.0.0.560	1	-931173302	Professional	2.0.10.356	2.0.10.356	01-20-2023	1/20/2023 1:39:02 AM	09:39:02	2.0.10.252	3				2	1	2	BlockProc2	List3	1																				1	1	1				ColorProc2	List4									6	BUTTON1.png	BUTTON2.PNG	BUTTON3.png	BUTTON4.png	greentriangle2.png				6	1	6	z	0							0	TrialProc	ColorList2							1	z	0	1	287444	0	z	1226	color
Wisconsin	1176	2	<?xml version="1.0"?>\n<Clock xmlns:dt="urn:schemas-microsoft-com:datatypes"><Description dt:dt="string">E-Prime Primary Realtime Clock</Description><StartTime><Timestamp dt:dt="int">0</Timestamp><DateUtc dt:dt="string">2023-01-20T01:39:02Z</DateUtc></StartTime><FrequencyChanges><FrequencyChange><Frequency dt:dt="r8">2929814</Frequency><Timestamp dt:dt="r8">16248123046</Timestamp><Current dt:dt="r8">0</Current><DateUtc dt:dt="string">2023-01-20T01:39:02Z</DateUtc></FrequencyChange></FrequencyChanges></Clock>\n	Wisconsin-1176-2	59.957	1.0.0.560	1	-931173302	Professional	2.0.10.356	2.0.10.356	01-20-2023	1/20/2023 1:39:02 AM	09:39:02	2.0.10.252	3				2	1	2	BlockProc2	List3	1																				1	1	1				ColorProc2	List4									7	BUTTON1.png	BUTTON2.PNG	BUTTON3.png	BUTTON4.png	Redcircle2.png				7	1	7	c	0							0	TrialProc	ColorList2							1	c	0	1	291213	0	c	993	color
Wisconsin	1176	2	<?xml version="1.0"?>\n<Clock xmlns:dt="urn:schemas-microsoft-com:datatypes"><Description dt:dt="string">E-Prime Primary Realtime Clock</Description><StartTime><Timestamp dt:dt="int">0</Timestamp><DateUtc dt:dt="string">2023-01-20T01:39:02Z</DateUtc></StartTime><FrequencyChanges><FrequencyChange><Frequency dt:dt="r8">2929814</Frequency><Timestamp dt:dt="r8">16248123046</Timestamp><Current dt:dt="r8">0</Current><DateUtc dt:dt="string">2023-01-20T01:39:02Z</DateUtc></FrequencyChange></FrequencyChanges></Clock>\n	Wisconsin-1176-2	59.957	1.0.0.560	1	-931173302	Professional	2.0.10.356	2.0.10.356	01-20-2023	1/20/2023 1:39:02 AM	09:39:02	2.0.10.252	3				2	1	2	BlockProc2	List3	1																				1	1	1				ColorProc2	List4									8	BUTTON1.png	BUTTON2.PNG	BUTTON3.png	BUTTON4.png	yellowtriangle3.png				10	1	8	x	0							0	TrialProc	ColorList2							1	x	0	1	294749	0	x	1233	color
Wisconsin	1176	2	<?xml version="1.0"?>\n<Clock xmlns:dt="urn:schemas-microsoft-com:datatypes"><Description dt:dt="string">E-Prime Primary Realtime Clock</Description><StartTime><Timestamp dt:dt="int">0</Timestamp><DateUtc dt:dt="string">2023-01-20T01:39:02Z</DateUtc></StartTime><FrequencyChanges><FrequencyChange><Frequency dt:dt="r8">2929814</Frequency><Timestamp dt:dt="r8">16248123046</Timestamp><Current dt:dt="r8">0</Current><DateUtc dt:dt="string">2023-01-20T01:39:02Z</DateUtc></FrequencyChange></FrequencyChanges></Clock>\n	Wisconsin-1176-2	59.957	1.0.0.560	1	-931173302	Professional	2.0.10.356	2.0.10.356	01-20-2023	1/20/2023 1:39:02 AM	09:39:02	2.0.10.252	3				2	1	2	BlockProc2	List3	1																				1	1	1				ColorProc2	List4									9	BUTTON1.png	BUTTON2.PNG	BUTTON3.png	BUTTON4.png	greencross4.png				4	1	9	z	0							0	TrialProc	ColorList2							1	z	0	1	298519	0	z	871	color
Wisconsin	1176	2	<?xml version="1.0"?>\n<Clock xmlns:dt="urn:schemas-microsoft-com:datatypes"><Description dt:dt="string">E-Prime Primary Realtime Clock</Description><StartTime><Timestamp dt:dt="int">0</Timestamp><DateUtc dt:dt="string">2023-01-20T01:39:02Z</DateUtc></StartTime><FrequencyChanges><FrequencyChange><Frequency dt:dt="r8">2929814</Frequency><Timestamp dt:dt="r8">16248123046</Timestamp><Current dt:dt="r8">0</Current><DateUtc dt:dt="string">2023-01-20T01:39:02Z</DateUtc></FrequencyChange></FrequencyChanges></Clock>\n	Wisconsin-1176-2	59.957	1.0.0.560	1	-931173302	Professional	2.0.10.356	2.0.10.356	01-20-2023	1/20/2023 1:39:02 AM	09:39:02	2.0.10.252	3				2	1	2	BlockProc2	List3	1																				1	1	1				ColorProc2	List4									10	BUTTON1.png	BUTTON2.PNG	BUTTON3.png	BUTTON4.png	redstar4.png				8	1	10	c	0							0	TrialProc	ColorList2							1	c	0	1	301921	0	c	1005	color
Wisconsin	1176	2	<?xml version="1.0"?>\n<Clock xmlns:dt="urn:schemas-microsoft-com:datatypes"><Description dt:dt="string">E-Prime Primary Realtime Clock</Description><StartTime><Timestamp dt:dt="int">0</Timestamp><DateUtc dt:dt="string">2023-01-20T01:39:02Z</DateUtc></StartTime><FrequencyChanges><FrequencyChange><Frequency dt:dt="r8">2929814</Frequency><Timestamp dt:dt="r8">16248123046</Timestamp><Current dt:dt="r8">0</Current><DateUtc dt:dt="string">2023-01-20T01:39:02Z</DateUtc></FrequencyChange></FrequencyChanges></Clock>\n	Wisconsin-1176-2	59.957	1.0.0.560	1	-931173302	Professional	2.0.10.356	2.0.10.356	01-20-2023	1/20/2023 1:39:02 AM	09:39:02	2.0.10.252	3				2	1	2	BlockProc2	List3	2																				2	1	2				NumberProc2	List4									1	Button1.png	Button2.png	Button3.png	Button4.png	Greenstar1.png							v	1				5	1	1	0	TrialProc	NumberList1							0	v	0	1	305457	0	z	845	number
Wisconsin	1176	2	<?xml version="1.0"?>\n<Clock xmlns:dt="urn:schemas-microsoft-com:datatypes"><Description dt:dt="string">E-Prime Primary Realtime Clock</Description><StartTime><Timestamp dt:dt="int">0</Timestamp><DateUtc dt:dt="string">2023-01-20T01:39:02Z</DateUtc></StartTime><FrequencyChanges><FrequencyChange><Frequency dt:dt="r8">2929814</Frequency><Timestamp dt:dt="r8">16248123046</Timestamp><Current dt:dt="r8">0</Current><DateUtc dt:dt="string">2023-01-20T01:39:02Z</DateUtc></FrequencyChange></FrequencyChanges></Clock>\n	Wisconsin-1176-2	59.957	1.0.0.560	1	-931173302	Professional	2.0.10.356	2.0.10.356	01-20-2023	1/20/2023 1:39:02 AM	09:39:02	2.0.10.252	3				2	1	2	BlockProc2	List3	2																				2	1	2				NumberProc2	List4									2	Button1.png	Button2.png	Button3.png	Button4.png	Greencross2.png							z	0				4	1	2	0	TrialProc	NumberList1							1	z	0	1	308843	0	z	2194	number
Wisconsin	1176	2	<?xml version="1.0"?>\n<Clock xmlns:dt="urn:schemas-microsoft-com:datatypes"><Description dt:dt="string">E-Prime Primary Realtime Clock</Description><StartTime><Timestamp dt:dt="int">0</Timestamp><DateUtc dt:dt="string">2023-01-20T01:39:02Z</DateUtc></StartTime><FrequencyChanges><FrequencyChange><Frequency dt:dt="r8">2929814</Frequency><Timestamp dt:dt="r8">16248123046</Timestamp><Current dt:dt="r8">0</Current><DateUtc dt:dt="string">2023-01-20T01:39:02Z</DateUtc></FrequencyChange></FrequencyChanges></Clock>\n	Wisconsin-1176-2	59.957	1.0.0.560	1	-931173302	Professional	2.0.10.356	2.0.10.356	01-20-2023	1/20/2023 1:39:02 AM	09:39:02	2.0.10.252	3				2	1	2	BlockProc2	List3	2																				2	1	2				NumberProc2	List4									3	Button1.png	Button2.png	Button3.png	Button4.png	Bluecross3.png							c	0				1	1	3	0	TrialProc	NumberList1							1	c	0	1	313580	0	c	977	number
Wisconsin	1176	2	<?xml version="1.0"?>\n<Clock xmlns:dt="urn:schemas-microsoft-com:datatypes"><Description dt:dt="string">E-Prime Primary Realtime Clock</Description><StartTime><Timestamp dt:dt="int">0</Timestamp><DateUtc dt:dt="string">2023-01-20T01:39:02Z</DateUtc></StartTime><FrequencyChanges><FrequencyChange><Frequency dt:dt="r8">2929814</Frequency><Timestamp dt:dt="r8">16248123046</Timestamp><Current dt:dt="r8">0</Current><DateUtc dt:dt="string">2023-01-20T01:39:02Z</DateUtc></FrequencyChange></FrequencyChanges></Clock>\n	Wisconsin-1176-2	59.957	1.0.0.560	1	-931173302	Professional	2.0.10.356	2.0.10.356	01-20-2023	1/20/2023 1:39:02 AM	09:39:02	2.0.10.252	3				2	1	2	BlockProc2	List3	2																				2	1	2				NumberProc2	List4									4	Button1.png	Button2.png	Button3.png	Button4.png	Redtriangle2.png							z	1				7	1	4	0	TrialProc	NumberList1							0	z	0	1	317099	0	c	5874	number
Wisconsin	1176	2	<?xml version="1.0"?>\n<Clock xmlns:dt="urn:schemas-microsoft-com:datatypes"><Description dt:dt="string">E-Prime Primary Realtime Clock</Description><StartTime><Timestamp dt:dt="int">0</Timestamp><DateUtc dt:dt="string">2023-01-20T01:39:02Z</DateUtc></StartTime><FrequencyChanges><FrequencyChange><Frequency dt:dt="r8">2929814</Frequency><Timestamp dt:dt="r8">16248123046</Timestamp><Current dt:dt="r8">0</Current><DateUtc dt:dt="string">2023-01-20T01:39:02Z</DateUtc></FrequencyChange></FrequencyChanges></Clock>\n	Wisconsin-1176-2	59.957	1.0.0.560	1	-931173302	Professional	2.0.10.356	2.0.10.356	01-20-2023	1/20/2023 1:39:02 AM	09:39:02	2.0.10.252	3				2	1	2	BlockProc2	List3	2																				2	1	2				NumberProc2	List4									5	Button1.png	Button2.png	Button3.png	Button4.png	Yellowtriangle2.png							z	1				10	1	5	0	TrialProc	NumberList1							0	z	0	1	325505	0	x	956	number
Wisconsin	1176	2	<?xml version="1.0"?>\n<Clock xmlns:dt="urn:schemas-microsoft-com:datatypes"><Description dt:dt="string">E-Prime Primary Realtime Clock</Description><StartTime><Timestamp dt:dt="int">0</Timestamp><DateUtc dt:dt="string">2023-01-20T01:39:02Z</DateUtc></StartTime><FrequencyChanges><FrequencyChange><Frequency dt:dt="r8">2929814</Frequency><Timestamp dt:dt="r8">16248123046</Timestamp><Current dt:dt="r8">0</Current><DateUtc dt:dt="string">2023-01-20T01:39:02Z</DateUtc></FrequencyChange></FrequencyChanges></Clock>\n	Wisconsin-1176-2	59.957	1.0.0.560	1	-931173302	Professional	2.0.10.356	2.0.10.356	01-20-2023	1/20/2023 1:39:02 AM	09:39:02	2.0.10.252	3				2	1	2	BlockProc2	List3	2																				2	1	2				NumberProc2	List4									6	Button1.png	Button2.png	Button3.png	Button4.png	Bluetriangle4.png							x	1				3	1	6	0	TrialProc	NumberList1							0	x	0	1	328991	0	v	1134	number
Wisconsin	1176	2	<?xml version="1.0"?>\n<Clock xmlns:dt="urn:schemas-microsoft-com:datatypes"><Description dt:dt="string">E-Prime Primary Realtime Clock</Description><StartTime><Timestamp dt:dt="int">0</Timestamp><DateUtc dt:dt="string">2023-01-20T01:39:02Z</DateUtc></StartTime><FrequencyChanges><FrequencyChange><Frequency dt:dt="r8">2929814</Frequency><Timestamp dt:dt="r8">16248123046</Timestamp><Current dt:dt="r8">0</Current><DateUtc dt:dt="string">2023-01-20T01:39:02Z</DateUtc></FrequencyChange></FrequencyChanges></Clock>\n	Wisconsin-1176-2	59.957	1.0.0.560	1	-931173302	Professional	2.0.10.356	2.0.10.356	01-20-2023	1/20/2023 1:39:02 AM	09:39:02	2.0.10.252	3				2	1	2	BlockProc2	List3	2																				2	1	2				NumberProc2	List4									7	Button1.png	Button2.png	Button3.png	Button4.png	Bluestar4.png							x	0				2	1	7	0	TrialProc	NumberList1							1	x	0	1	332661	0	x	1991	number
Wisconsin	1176	2	<?xml version="1.0"?>\n<Clock xmlns:dt="urn:schemas-microsoft-com:datatypes"><Description dt:dt="string">E-Prime Primary Realtime Clock</Description><StartTime><Timestamp dt:dt="int">0</Timestamp><DateUtc dt:dt="string">2023-01-20T01:39:02Z</DateUtc></StartTime><FrequencyChanges><FrequencyChange><Frequency dt:dt="r8">2929814</Frequency><Timestamp dt:dt="r8">16248123046</Timestamp><Current dt:dt="r8">0</Current><DateUtc dt:dt="string">2023-01-20T01:39:02Z</DateUtc></FrequencyChange></FrequencyChanges></Clock>\n	Wisconsin-1176-2	59.957	1.0.0.560	1	-931173302	Professional	2.0.10.356	2.0.10.356	01-20-2023	1/20/2023 1:39:02 AM	09:39:02	2.0.10.252	3				2	1	2	BlockProc2	List3	2																				2	1	2				NumberProc2	List4									8	Button1.png	Button2.png	Button3.png	Button4.png	Redstar1.png							v	0				6	1	8	0	TrialProc	NumberList1							1	v	0	1	337197	0	v	1263	number
Wisconsin	1176	2	<?xml version="1.0"?>\n<Clock xmlns:dt="urn:schemas-microsoft-com:datatypes"><Description dt:dt="string">E-Prime Primary Realtime Clock</Description><StartTime><Timestamp dt:dt="int">0</Timestamp><DateUtc dt:dt="string">2023-01-20T01:39:02Z</DateUtc></StartTime><FrequencyChanges><FrequencyChange><Frequency dt:dt="r8">2929814</Frequency><Timestamp dt:dt="r8">16248123046</Timestamp><Current dt:dt="r8">0</Current><DateUtc dt:dt="string">2023-01-20T01:39:02Z</DateUtc></FrequencyChange></FrequencyChanges></Clock>\n	Wisconsin-1176-2	59.957	1.0.0.560	1	-931173302	Professional	2.0.10.356	2.0.10.356	01-20-2023	1/20/2023 1:39:02 AM	09:39:02	2.0.10.252	3				2	1	2	BlockProc2	List3	2																				2	1	2				NumberProc2	List4									9	Button1.png	Button2.png	Button3.png	Button4.png	yellowcircle4.png							x	0				8	1	9	0	TrialProc	NumberList1							1	x	0	1	341000	0	x	1060	number
Wisconsin	1176	2	<?xml version="1.0"?>\n<Clock xmlns:dt="urn:schemas-microsoft-com:datatypes"><Description dt:dt="string">E-Prime Primary Realtime Clock</Description><StartTime><Timestamp dt:dt="int">0</Timestamp><DateUtc dt:dt="string">2023-01-20T01:39:02Z</DateUtc></StartTime><FrequencyChanges><FrequencyChange><Frequency dt:dt="r8">2929814</Frequency><Timestamp dt:dt="r8">16248123046</Timestamp><Current dt:dt="r8">0</Current><DateUtc dt:dt="string">2023-01-20T01:39:02Z</DateUtc></FrequencyChange></FrequencyChanges></Clock>\n	Wisconsin-1176-2	59.957	1.0.0.560	1	-931173302	Professional	2.0.10.356	2.0.10.356	01-20-2023	1/20/2023 1:39:02 AM	09:39:02	2.0.10.252	3				2	1	2	BlockProc2	List3	2																				2	1	2				NumberProc2	List4									10	Button1.png	Button2.png	Button3.png	Button4.png	Yellowcross2.png							z	0				9	1	10	0	TrialProc	NumberList1							1	z	0	1	344603	0	z	881	number
Wisconsin	1176	2	<?xml version="1.0"?>\n<Clock xmlns:dt="urn:schemas-microsoft-com:datatypes"><Description dt:dt="string">E-Prime Primary Realtime Clock</Description><StartTime><Timestamp dt:dt="int">0</Timestamp><DateUtc dt:dt="string">2023-01-20T01:39:02Z</DateUtc></StartTime><FrequencyChanges><FrequencyChange><Frequency dt:dt="r8">2929814</Frequency><Timestamp dt:dt="r8">16248123046</Timestamp><Current dt:dt="r8">0</Current><DateUtc dt:dt="string">2023-01-20T01:39:02Z</DateUtc></FrequencyChange></FrequencyChanges></Clock>\n	Wisconsin-1176-2	59.957	1.0.0.560	1	-931173302	Professional	2.0.10.356	2.0.10.356	01-20-2023	1/20/2023 1:39:02 AM	09:39:02	2.0.10.252	3				2	1	2	BlockProc2	List3	3																				3	1	3				ShapeProc2	List4									1	Button1.png	Button2.png	Button3.png	Button4.png	redcircle1.png							z	1							0	TrialProc	ShapeList1				4	1	1	0	z	0	1	348022	0	v	1414	Shape
Wisconsin	1176	2	<?xml version="1.0"?>\n<Clock xmlns:dt="urn:schemas-microsoft-com:datatypes"><Description dt:dt="string">E-Prime Primary Realtime Clock</Description><StartTime><Timestamp dt:dt="int">0</Timestamp><DateUtc dt:dt="string">2023-01-20T01:39:02Z</DateUtc></StartTime><FrequencyChanges><FrequencyChange><Frequency dt:dt="r8">2929814</Frequency><Timestamp dt:dt="r8">16248123046</Timestamp><Current dt:dt="r8">0</Current><DateUtc dt:dt="string">2023-01-20T01:39:02Z</DateUtc></FrequencyChange></FrequencyChanges></Clock>\n	Wisconsin-1176-2	59.957	1.0.0.560	1	-931173302	Professional	2.0.10.356	2.0.10.356	01-20-2023	1/20/2023 1:39:02 AM	09:39:02	2.0.10.252	3				2	1	2	BlockProc2	List3	3																				3	1	3				ShapeProc2	List4									2	Button1.png	Button2.png	Button3.png	Button4.png	yellowcross4.png							c	1							0	TrialProc	ShapeList1				8	1	2	0	c	0	1	351975	0	x	1029	Shape
Wisconsin	1176	2	<?xml version="1.0"?>\n<Clock xmlns:dt="urn:schemas-microsoft-com:datatypes"><Description dt:dt="string">E-Prime Primary Realtime Clock</Description><StartTime><Timestamp dt:dt="int">0</Timestamp><DateUtc dt:dt="string">2023-01-20T01:39:02Z</DateUtc></StartTime><FrequencyChanges><FrequencyChange><Frequency dt:dt="r8">2929814</Frequency><Timestamp dt:dt="r8">16248123046</Timestamp><Current dt:dt="r8">0</Current><DateUtc dt:dt="string">2023-01-20T01:39:02Z</DateUtc></FrequencyChange></FrequencyChanges></Clock>\n	Wisconsin-1176-2	59.957	1.0.0.560	1	-931173302	Professional	2.0.10.356	2.0.10.356	01-20-2023	1/20/2023 1:39:02 AM	09:39:02	2.0.10.252	3				2	1	2	BlockProc2	List3	3																				3	1	3				ShapeProc2	List4									3	Button1.png	Button2.png	Button3.png	Button4.png	Yellowtriangle1.png							x	0							0	TrialProc	ShapeList1				10	1	3	1	x	0	1	355544	0	x	1011	Shape
Wisconsin	1176	2	<?xml version="1.0"?>\n<Clock xmlns:dt="urn:schemas-microsoft-com:datatypes"><Description dt:dt="string">E-Prime Primary Realtime Clock</Description><StartTime><Timestamp dt:dt="int">0</Timestamp><DateUtc dt:dt="string">2023-01-20T01:39:02Z</DateUtc></StartTime><FrequencyChanges><FrequencyChange><Frequency dt:dt="r8">2929814</Frequency><Timestamp dt:dt="r8">16248123046</Timestamp><Current dt:dt="r8">0</Current><DateUtc dt:dt="string">2023-01-20T01:39:02Z</DateUtc></FrequencyChange></FrequencyChanges></Clock>\n	Wisconsin-1176-2	59.957	1.0.0.560	1	-931173302	Professional	2.0.10.356	2.0.10.356	01-20-2023	1/20/2023 1:39:02 AM	09:39:02	2.0.10.252	3				2	1	2	BlockProc2	List3	3																				3	1	3				ShapeProc2	List4									4	Button1.png	Button2.png	Button3.png	Button4.png	Redtriangle3.png							x	0							0	TrialProc	ShapeList1				7	1	4	1	x	0	1	359097	0	x	1378	Shape
Wisconsin	1176	2	<?xml version="1.0"?>\n<Clock xmlns:dt="urn:schemas-microsoft-com:datatypes"><Description dt:dt="string">E-Prime Primary Realtime Clock</Description><StartTime><Timestamp dt:dt="int">0</Timestamp><DateUtc dt:dt="string">2023-01-20T01:39:02Z</DateUtc></StartTime><FrequencyChanges><FrequencyChange><Frequency dt:dt="r8">2929814</Frequency><Timestamp dt:dt="r8">16248123046</Timestamp><Current dt:dt="r8">0</Current><DateUtc dt:dt="string">2023-01-20T01:39:02Z</DateUtc></FrequencyChange></FrequencyChanges></Clock>\n	Wisconsin-1176-2	59.957	1.0.0.560	1	-931173302	Professional	2.0.10.356	2.0.10.356	01-20-2023	1/20/2023 1:39:02 AM	09:39:02	2.0.10.252	3				2	1	2	BlockProc2	List3	3																				3	1	3				ShapeProc2	List4									5	Button1.png	Button2.png	Button3.png	Button4.png	Redcross2.png							c	0							0	TrialProc	ShapeList1				5	1	5	1	c	0	0	363016	0	c	1123	Shape
Wisconsin	1176	2	<?xml version="1.0"?>\n<Clock xmlns:dt="urn:schemas-microsoft-com:datatypes"><Description dt:dt="string">E-Prime Primary Realtime Clock</Description><StartTime><Timestamp dt:dt="int">0</Timestamp><DateUtc dt:dt="string">2023-01-20T01:39:02Z</DateUtc></StartTime><FrequencyChanges><FrequencyChange><Frequency dt:dt="r8">2929814</Frequency><Timestamp dt:dt="r8">16248123046</Timestamp><Current dt:dt="r8">0</Current><DateUtc dt:dt="string">2023-01-20T01:39:02Z</DateUtc></FrequencyChange></FrequencyChanges></Clock>\n	Wisconsin-1176-2	59.957	1.0.0.560	1	-931173302	Professional	2.0.10.356	2.0.10.356	01-20-2023	1/20/2023 1:39:02 AM	09:39:02	2.0.10.252	3				2	1	2	BlockProc2	List3	3																				3	1	3				ShapeProc2	List4									6	Button1.png	Button2.png	Button3.png	Button4.png	Yellowstar2.png							v	0							0	TrialProc	ShapeList1				9	1	6	1	v	0	1	366669	0	v	1214	Shape
Wisconsin	1176	2	<?xml version="1.0"?>\n<Clock xmlns:dt="urn:schemas-microsoft-com:datatypes"><Description dt:dt="string">E-Prime Primary Realtime Clock</Description><StartTime><Timestamp dt:dt="int">0</Timestamp><DateUtc dt:dt="string">2023-01-20T01:39:02Z</DateUtc></StartTime><FrequencyChanges><FrequencyChange><Frequency dt:dt="r8">2929814</Frequency><Timestamp dt:dt="r8">16248123046</Timestamp><Current dt:dt="r8">0</Current><DateUtc dt:dt="string">2023-01-20T01:39:02Z</DateUtc></FrequencyChange></FrequencyChanges></Clock>\n	Wisconsin-1176-2	59.957	1.0.0.560	1	-931173302	Professional	2.0.10.356	2.0.10.356	01-20-2023	1/20/2023 1:39:02 AM	09:39:02	2.0.10.252	3				2	1	2	BlockProc2	List3	3																				3	1	3				ShapeProc2	List4									7	Button1.png	Button2.png	Button3.png	Button4.png	Bluetriangle2.png							x	0							0	TrialProc	ShapeList1				2	1	7	1	x	0	1	370422	0	x	1077	Shape
Wisconsin	1176	2	<?xml version="1.0"?>\n<Clock xmlns:dt="urn:schemas-microsoft-com:datatypes"><Description dt:dt="string">E-Prime Primary Realtime Clock</Description><StartTime><Timestamp dt:dt="int">0</Timestamp><DateUtc dt:dt="string">2023-01-20T01:39:02Z</DateUtc></StartTime><FrequencyChanges><FrequencyChange><Frequency dt:dt="r8">2929814</Frequency><Timestamp dt:dt="r8">16248123046</Timestamp><Current dt:dt="r8">0</Current><DateUtc dt:dt="string">2023-01-20T01:39:02Z</DateUtc></FrequencyChange></FrequencyChanges></Clock>\n	Wisconsin-1176-2	59.957	1.0.0.560	1	-931173302	Professional	2.0.10.356	2.0.10.356	01-20-2023	1/20/2023 1:39:02 AM	09:39:02	2.0.10.252	3				2	1	2	BlockProc2	List3	3																				3	1	3				ShapeProc2	List4									8	Button1.png	Button2.png	Button3.png	Button4.png	Bluecircle3.png							z	0							0	TrialProc	ShapeList1				1	1	8	1	z	0	1	374041	0	z	994	Shape
Wisconsin	1176	2	<?xml version="1.0"?>\n<Clock xmlns:dt="urn:schemas-microsoft-com:datatypes"><Description dt:dt="string">E-Prime Primary Realtime Clock</Description><StartTime><Timestamp dt:dt="int">0</Timestamp><DateUtc dt:dt="string">2023-01-20T01:39:02Z</DateUtc></StartTime><FrequencyChanges><FrequencyChange><Frequency dt:dt="r8">2929814</Frequency><Timestamp dt:dt="r8">16248123046</Timestamp><Current dt:dt="r8">0</Current><DateUtc dt:dt="string">2023-01-20T01:39:02Z</DateUtc></FrequencyChange></FrequencyChanges></Clock>\n	Wisconsin-1176-2	59.957	1.0.0.560	1	-931173302	Professional	2.0.10.356	2.0.10.356	01-20-2023	1/20/2023 1:39:02 AM	09:39:02	2.0.10.252	3				2	1	2	BlockProc2	List3	3																				3	1	3				ShapeProc2	List4									9	Button1.png	Button2.png	Button3.png	Button4.png	Greenstar3.png							v	0							0	TrialProc	ShapeList1				3	1	9	1	v	0	1	377577	0	v	1073	Shape
Wisconsin	1176	2	<?xml version="1.0"?>\n<Clock xmlns:dt="urn:schemas-microsoft-com:datatypes"><Description dt:dt="string">E-Prime Primary Realtime Clock</Description><StartTime><Timestamp dt:dt="int">0</Timestamp><DateUtc dt:dt="string">2023-01-20T01:39:02Z</DateUtc></StartTime><FrequencyChanges><FrequencyChange><Frequency dt:dt="r8">2929814</Frequency><Timestamp dt:dt="r8">16248123046</Timestamp><Current dt:dt="r8">0</Current><DateUtc dt:dt="string">2023-01-20T01:39:02Z</DateUtc></FrequencyChange></FrequencyChanges></Clock>\n	Wisconsin-1176-2	59.957	1.0.0.560	1	-931173302	Professional	2.0.10.356	2.0.10.356	01-20-2023	1/20/2023 1:39:02 AM	09:39:02	2.0.10.252	3				2	1	2	BlockProc2	List3	3																				3	1	3				ShapeProc2	List4									10	Button1.png	Button2.png	Button3.png	Button4.png	Redstar3.png							v	0							0	TrialProc	ShapeList1				6	1	10	1	v	0	1	381180	0	v	1214	Shape
