ExperimentName	Subject	Session	Clock.Information	DataFile.Basename	Display.RefreshRate	ExperimentVersion	Group	RandomSeed	RuntimeCapabilities	RuntimeVersion	RuntimeVersionExpected	SessionDate	SessionStartDateTimeUtc	SessionTime	Slide1.DEVICE	Slide2.DEVICE	Slide3.DEVICE	StudioVersion	Welcome.DEVICE	Block	GetReady.DEVICE	List1	List1.Cycle	List1.Sample	List2	List2.Cycle	List2.Sample	PracticeReady.DEVICE	Procedure[Block]	Running[Block]	Trial	CardIMG1[Trial]	CardIMG2[Trial]	CardIMG3[Trial]	CardIMG4[Trial]	CardStim[Trial]	Category	CorrectAnswer[Trial]	List3	List3.Cycle	List3.Sample	List4	List4.Cycle	List4.Sample	PracticeList	PracticeList.Cycle	PracticeList.Sample	Procedure[Trial]	Running[Trial]	Slide4.ACC	Slide4.CRESP	Slide4.DEVICE	Slide4.DurationError	Slide4.OnsetDelay	Slide4.OnsetTime	Slide4.OnsetToOnsetTime	Slide4.RESP	Slide4.RT	Slide4.RTTime	SubTrial	CardIMG1[SubTrial]	CardIMG2[SubTrial]	CardIMG3[SubTrial]	CardIMG4[SubTrial]	CardStim[SubTrial]	ColorList	ColorList.Cycle	ColorList.Sample	ColorList2	ColorList2.Cycle	ColorList2.Sample	CorrectAnswer[SubTrial]	NonPerseverativeError	NumberList	NumberList.Cycle	NumberList.Sample	NumberList2	NumberList2.Cycle	NumberList2.Sample	PerseverativeError	Procedure[SubTrial]	Running[SubTrial]	ShapeList	ShapeList.Cycle	ShapeList.Sample	ShapeList2	ShapeList2.Cycle	ShapeList2.Sample	Slide5.ACC	Slide5.CRESP	Slide5.DEVICE	Slide5.DurationError	Slide5.OnsetDelay	Slide5.OnsetTime	Slide5.OnsetToOnsetTime	Slide5.RESP	Slide5.RT	Slide5.RTTime	TrialType
Wisconsin	1172	1	<?xml version="1.0"?>\n<Clock xmlns:dt="urn:schemas-microsoft-com:datatypes"><Description dt:dt="string">E-Prime Primary Realtime Clock</Description><StartTime><Timestamp dt:dt="int">0</Timestamp><DateUtc dt:dt="string">2022-12-03T03:11:18Z</DateUtc></StartTime><FrequencyChanges><FrequencyChange><Frequency dt:dt="r8">10000000</Frequency><Timestamp dt:dt="r8">7541646162286</Timestamp><Current dt:dt="r8">0</Current><DateUtc dt:dt="string">2022-12-03T03:11:18Z</DateUtc></FrequencyChange></FrequencyChanges></Clock>\n	Wisconsin-1172-1	60.009	1.0.0.245	1	-313846870	Full	3.0.3.80	3.0.3.80	12-03-2022	12/3/2022 3:11:19 AM	11:11:19	Keyboard	Keyboard	Keyboard	3.0.3.82	Keyboard	1	Keyboard	1	1	1				Keyboard	Practiceploc	List1	1	Button1.png	Button2.png	Button3.png	Button4.png	Greencircle3.png	顏色	{button1}							1	1	1	PracticeTrialProc	PracticeList	0	{button1}	Button	2	50	69743	5032		0	0																																								
Wisconsin	1172	1	<?xml version="1.0"?>\n<Clock xmlns:dt="urn:schemas-microsoft-com:datatypes"><Description dt:dt="string">E-Prime Primary Realtime Clock</Description><StartTime><Timestamp dt:dt="int">0</Timestamp><DateUtc dt:dt="string">2022-12-03T03:11:18Z</DateUtc></StartTime><FrequencyChanges><FrequencyChange><Frequency dt:dt="r8">10000000</Frequency><Timestamp dt:dt="r8">7541646162286</Timestamp><Current dt:dt="r8">0</Current><DateUtc dt:dt="string">2022-12-03T03:11:18Z</DateUtc></FrequencyChange></FrequencyChanges></Clock>\n	Wisconsin-1172-1	60.009	1.0.0.245	1	-313846870	Full	3.0.3.80	3.0.3.80	12-03-2022	12/3/2022 3:11:19 AM	11:11:19	Keyboard	Keyboard	Keyboard	3.0.3.82	Keyboard	1	Keyboard	1	1	1				Keyboard	Practiceploc	List1	2	Button1.png	Button2.png	Button3.png	Button4.png	Redstar2.png	顏色	{button3}							2	1	2	PracticeTrialProc	PracticeList	1	{button3}	Button	2	33	77324	0	{Button3}	2787	80111																																								
Wisconsin	1172	1	<?xml version="1.0"?>\n<Clock xmlns:dt="urn:schemas-microsoft-com:datatypes"><Description dt:dt="string">E-Prime Primary Realtime Clock</Description><StartTime><Timestamp dt:dt="int">0</Timestamp><DateUtc dt:dt="string">2022-12-03T03:11:18Z</DateUtc></StartTime><FrequencyChanges><FrequencyChange><Frequency dt:dt="r8">10000000</Frequency><Timestamp dt:dt="r8">7541646162286</Timestamp><Current dt:dt="r8">0</Current><DateUtc dt:dt="string">2022-12-03T03:11:18Z</DateUtc></FrequencyChange></FrequencyChanges></Clock>\n	Wisconsin-1172-1	60.009	1.0.0.245	1	-313846870	Full	3.0.3.80	3.0.3.80	12-03-2022	12/3/2022 3:11:19 AM	11:11:19	Keyboard	Keyboard	Keyboard	3.0.3.82	Keyboard	1	Keyboard	1	1	1				Keyboard	Practiceploc	List1	3	Button1.png	Button2.png	Button3.png	Button4.png	Bluetriangle1.png	形狀	{button2}							3	1	3	PracticeTrialProc	PracticeList	1	{button2}	Button	1	34	82707	0	{Button2}	2100	84807																																								
Wisconsin	1172	1	<?xml version="1.0"?>\n<Clock xmlns:dt="urn:schemas-microsoft-com:datatypes"><Description dt:dt="string">E-Prime Primary Realtime Clock</Description><StartTime><Timestamp dt:dt="int">0</Timestamp><DateUtc dt:dt="string">2022-12-03T03:11:18Z</DateUtc></StartTime><FrequencyChanges><FrequencyChange><Frequency dt:dt="r8">10000000</Frequency><Timestamp dt:dt="r8">7541646162286</Timestamp><Current dt:dt="r8">0</Current><DateUtc dt:dt="string">2022-12-03T03:11:18Z</DateUtc></FrequencyChange></FrequencyChanges></Clock>\n	Wisconsin-1172-1	60.009	1.0.0.245	1	-313846870	Full	3.0.3.80	3.0.3.80	12-03-2022	12/3/2022 3:11:19 AM	11:11:19	Keyboard	Keyboard	Keyboard	3.0.3.82	Keyboard	1	Keyboard	1	1	1				Keyboard	Practiceploc	List1	4	Button1.png	Button2.png	Button3.png	Button4.png	greenstar2.png	形狀	{Button4}							4	1	4	PracticeTrialProc	PracticeList	1	{Button4}	Button	10	33	87389	0	{Button4}	1834	89223																																								
Wisconsin	1172	1	<?xml version="1.0"?>\n<Clock xmlns:dt="urn:schemas-microsoft-com:datatypes"><Description dt:dt="string">E-Prime Primary Realtime Clock</Description><StartTime><Timestamp dt:dt="int">0</Timestamp><DateUtc dt:dt="string">2022-12-03T03:11:18Z</DateUtc></StartTime><FrequencyChanges><FrequencyChange><Frequency dt:dt="r8">10000000</Frequency><Timestamp dt:dt="r8">7541646162286</Timestamp><Current dt:dt="r8">0</Current><DateUtc dt:dt="string">2022-12-03T03:11:18Z</DateUtc></FrequencyChange></FrequencyChanges></Clock>\n	Wisconsin-1172-1	60.009	1.0.0.245	1	-313846870	Full	3.0.3.80	3.0.3.80	12-03-2022	12/3/2022 3:11:19 AM	11:11:19	Keyboard	Keyboard	Keyboard	3.0.3.82	Keyboard	1	Keyboard	1	1	1				Keyboard	Practiceploc	List1	5	Button1.png	Button2.png	Button3.png	Button4.png	BlueCross4.png	圖案數目	{Button2}							5	1	5	PracticeTrialProc	PracticeList	1	{Button2}	Button	10	33	91804	0	{Button2}	2132	93936																																								
Wisconsin	1172	1	<?xml version="1.0"?>\n<Clock xmlns:dt="urn:schemas-microsoft-com:datatypes"><Description dt:dt="string">E-Prime Primary Realtime Clock</Description><StartTime><Timestamp dt:dt="int">0</Timestamp><DateUtc dt:dt="string">2022-12-03T03:11:18Z</DateUtc></StartTime><FrequencyChanges><FrequencyChange><Frequency dt:dt="r8">10000000</Frequency><Timestamp dt:dt="r8">7541646162286</Timestamp><Current dt:dt="r8">0</Current><DateUtc dt:dt="string">2022-12-03T03:11:18Z</DateUtc></FrequencyChange></FrequencyChanges></Clock>\n	Wisconsin-1172-1	60.009	1.0.0.245	1	-313846870	Full	3.0.3.80	3.0.3.80	12-03-2022	12/3/2022 3:11:19 AM	11:11:19	Keyboard	Keyboard	Keyboard	3.0.3.82	Keyboard	1	Keyboard	1	1	1				Keyboard	Practiceploc	List1	6	Button1.png	Button2.png	Button3.png	Button4.png	yellowcircle2.png	圖案數目	{Button1}							6	1	6	PracticeTrialProc	PracticeList	1	{Button1}	Button	10	33	96520	0	{Button1}	2192	98712																																								
Wisconsin	1172	1	<?xml version="1.0"?>\n<Clock xmlns:dt="urn:schemas-microsoft-com:datatypes"><Description dt:dt="string">E-Prime Primary Realtime Clock</Description><StartTime><Timestamp dt:dt="int">0</Timestamp><DateUtc dt:dt="string">2022-12-03T03:11:18Z</DateUtc></StartTime><FrequencyChanges><FrequencyChange><Frequency dt:dt="r8">10000000</Frequency><Timestamp dt:dt="r8">7541646162286</Timestamp><Current dt:dt="r8">0</Current><DateUtc dt:dt="string">2022-12-03T03:11:18Z</DateUtc></FrequencyChange></FrequencyChanges></Clock>\n	Wisconsin-1172-1	60.009	1.0.0.245	1	-313846870	Full	3.0.3.80	3.0.3.80	12-03-2022	12/3/2022 3:11:19 AM	11:11:19	Keyboard	Keyboard	Keyboard	3.0.3.82	Keyboard	2					2	1	1		BlockProc2	List2	1											3	1	1				NumberProc2	List4											1	Button1.png	Button2.png	Button3.png	Button4.png	Bluecross3.png							{button3}	0				1	1	1	0	TrialProc	NumberList2							1	{button3}	Button	1	50	127246	0	{Button3}	1425	128671	number
Wisconsin	1172	1	<?xml version="1.0"?>\n<Clock xmlns:dt="urn:schemas-microsoft-com:datatypes"><Description dt:dt="string">E-Prime Primary Realtime Clock</Description><StartTime><Timestamp dt:dt="int">0</Timestamp><DateUtc dt:dt="string">2022-12-03T03:11:18Z</DateUtc></StartTime><FrequencyChanges><FrequencyChange><Frequency dt:dt="r8">10000000</Frequency><Timestamp dt:dt="r8">7541646162286</Timestamp><Current dt:dt="r8">0</Current><DateUtc dt:dt="string">2022-12-03T03:11:18Z</DateUtc></FrequencyChange></FrequencyChanges></Clock>\n	Wisconsin-1172-1	60.009	1.0.0.245	1	-313846870	Full	3.0.3.80	3.0.3.80	12-03-2022	12/3/2022 3:11:19 AM	11:11:19	Keyboard	Keyboard	Keyboard	3.0.3.82	Keyboard	2					2	1	1		BlockProc2	List2	1											3	1	1				NumberProc2	List4											2	Button1.png	Button2.png	Button3.png	Button4.png	Bluestar4.png							{button2}	0				2	1	2	0	TrialProc	NumberList2							1	{button2}	Button	9	33	131245	0	{Button2}	2611	133856	number
Wisconsin	1172	1	<?xml version="1.0"?>\n<Clock xmlns:dt="urn:schemas-microsoft-com:datatypes"><Description dt:dt="string">E-Prime Primary Realtime Clock</Description><StartTime><Timestamp dt:dt="int">0</Timestamp><DateUtc dt:dt="string">2022-12-03T03:11:18Z</DateUtc></StartTime><FrequencyChanges><FrequencyChange><Frequency dt:dt="r8">10000000</Frequency><Timestamp dt:dt="r8">7541646162286</Timestamp><Current dt:dt="r8">0</Current><DateUtc dt:dt="string">2022-12-03T03:11:18Z</DateUtc></FrequencyChange></FrequencyChanges></Clock>\n	Wisconsin-1172-1	60.009	1.0.0.245	1	-313846870	Full	3.0.3.80	3.0.3.80	12-03-2022	12/3/2022 3:11:19 AM	11:11:19	Keyboard	Keyboard	Keyboard	3.0.3.82	Keyboard	2					2	1	1		BlockProc2	List2	1											3	1	1				NumberProc2	List4											3	Button1.png	Button2.png	Button3.png	Button4.png	Bluetriangle4.png							{button2}	0				3	1	3	0	TrialProc	NumberList2							1	{button2}	Button	8	33	136427	0	{Button2}	804	137231	number
Wisconsin	1172	1	<?xml version="1.0"?>\n<Clock xmlns:dt="urn:schemas-microsoft-com:datatypes"><Description dt:dt="string">E-Prime Primary Realtime Clock</Description><StartTime><Timestamp dt:dt="int">0</Timestamp><DateUtc dt:dt="string">2022-12-03T03:11:18Z</DateUtc></StartTime><FrequencyChanges><FrequencyChange><Frequency dt:dt="r8">10000000</Frequency><Timestamp dt:dt="r8">7541646162286</Timestamp><Current dt:dt="r8">0</Current><DateUtc dt:dt="string">2022-12-03T03:11:18Z</DateUtc></FrequencyChange></FrequencyChanges></Clock>\n	Wisconsin-1172-1	60.009	1.0.0.245	1	-313846870	Full	3.0.3.80	3.0.3.80	12-03-2022	12/3/2022 3:11:19 AM	11:11:19	Keyboard	Keyboard	Keyboard	3.0.3.82	Keyboard	2					2	1	1		BlockProc2	List2	1											3	1	1				NumberProc2	List4											4	Button1.png	Button2.png	Button3.png	Button4.png	Greencross2.png							{button1}	0				4	1	4	0	TrialProc	NumberList2							1	{button1}	Button	10	33	139809	0	{Button1}	1286	141095	number
Wisconsin	1172	1	<?xml version="1.0"?>\n<Clock xmlns:dt="urn:schemas-microsoft-com:datatypes"><Description dt:dt="string">E-Prime Primary Realtime Clock</Description><StartTime><Timestamp dt:dt="int">0</Timestamp><DateUtc dt:dt="string">2022-12-03T03:11:18Z</DateUtc></StartTime><FrequencyChanges><FrequencyChange><Frequency dt:dt="r8">10000000</Frequency><Timestamp dt:dt="r8">7541646162286</Timestamp><Current dt:dt="r8">0</Current><DateUtc dt:dt="string">2022-12-03T03:11:18Z</DateUtc></FrequencyChange></FrequencyChanges></Clock>\n	Wisconsin-1172-1	60.009	1.0.0.245	1	-313846870	Full	3.0.3.80	3.0.3.80	12-03-2022	12/3/2022 3:11:19 AM	11:11:19	Keyboard	Keyboard	Keyboard	3.0.3.82	Keyboard	2					2	1	1		BlockProc2	List2	1											3	1	1				NumberProc2	List4											5	Button1.png	Button2.png	Button3.png	Button4.png	Greenstar1.png							{button4}	0				5	1	5	0	TrialProc	NumberList2							1	{button4}	Button	9	33	143675	0	{Button4}	1436	145111	number
Wisconsin	1172	1	<?xml version="1.0"?>\n<Clock xmlns:dt="urn:schemas-microsoft-com:datatypes"><Description dt:dt="string">E-Prime Primary Realtime Clock</Description><StartTime><Timestamp dt:dt="int">0</Timestamp><DateUtc dt:dt="string">2022-12-03T03:11:18Z</DateUtc></StartTime><FrequencyChanges><FrequencyChange><Frequency dt:dt="r8">10000000</Frequency><Timestamp dt:dt="r8">7541646162286</Timestamp><Current dt:dt="r8">0</Current><DateUtc dt:dt="string">2022-12-03T03:11:18Z</DateUtc></FrequencyChange></FrequencyChanges></Clock>\n	Wisconsin-1172-1	60.009	1.0.0.245	1	-313846870	Full	3.0.3.80	3.0.3.80	12-03-2022	12/3/2022 3:11:19 AM	11:11:19	Keyboard	Keyboard	Keyboard	3.0.3.82	Keyboard	2					2	1	1		BlockProc2	List2	1											3	1	1				NumberProc2	List4											6	Button1.png	Button2.png	Button3.png	Button4.png	Redstar1.png							{button4}	0				6	1	6	0	TrialProc	NumberList2							1	{button4}	Button	9	33	147691	0	{Button4}	1324	149015	number
Wisconsin	1172	1	<?xml version="1.0"?>\n<Clock xmlns:dt="urn:schemas-microsoft-com:datatypes"><Description dt:dt="string">E-Prime Primary Realtime Clock</Description><StartTime><Timestamp dt:dt="int">0</Timestamp><DateUtc dt:dt="string">2022-12-03T03:11:18Z</DateUtc></StartTime><FrequencyChanges><FrequencyChange><Frequency dt:dt="r8">10000000</Frequency><Timestamp dt:dt="r8">7541646162286</Timestamp><Current dt:dt="r8">0</Current><DateUtc dt:dt="string">2022-12-03T03:11:18Z</DateUtc></FrequencyChange></FrequencyChanges></Clock>\n	Wisconsin-1172-1	60.009	1.0.0.245	1	-313846870	Full	3.0.3.80	3.0.3.80	12-03-2022	12/3/2022 3:11:19 AM	11:11:19	Keyboard	Keyboard	Keyboard	3.0.3.82	Keyboard	2					2	1	1		BlockProc2	List2	1											3	1	1				NumberProc2	List4											7	Button1.png	Button2.png	Button3.png	Button4.png	Redtriangle2.png							{button1}	0				7	1	7	0	TrialProc	NumberList2							1	{button1}	Button	1	33	151590	0	{Button1}	1473	153063	number
Wisconsin	1172	1	<?xml version="1.0"?>\n<Clock xmlns:dt="urn:schemas-microsoft-com:datatypes"><Description dt:dt="string">E-Prime Primary Realtime Clock</Description><StartTime><Timestamp dt:dt="int">0</Timestamp><DateUtc dt:dt="string">2022-12-03T03:11:18Z</DateUtc></StartTime><FrequencyChanges><FrequencyChange><Frequency dt:dt="r8">10000000</Frequency><Timestamp dt:dt="r8">7541646162286</Timestamp><Current dt:dt="r8">0</Current><DateUtc dt:dt="string">2022-12-03T03:11:18Z</DateUtc></FrequencyChange></FrequencyChanges></Clock>\n	Wisconsin-1172-1	60.009	1.0.0.245	1	-313846870	Full	3.0.3.80	3.0.3.80	12-03-2022	12/3/2022 3:11:19 AM	11:11:19	Keyboard	Keyboard	Keyboard	3.0.3.82	Keyboard	2					2	1	1		BlockProc2	List2	1											3	1	1				NumberProc2	List4											8	Button1.png	Button2.png	Button3.png	Button4.png	yellowcircle4.png							{button2}	0				8	1	8	0	TrialProc	NumberList2							1	{button2}	Button	9	33	155639	0	{Button2}	1320	156959	number
Wisconsin	1172	1	<?xml version="1.0"?>\n<Clock xmlns:dt="urn:schemas-microsoft-com:datatypes"><Description dt:dt="string">E-Prime Primary Realtime Clock</Description><StartTime><Timestamp dt:dt="int">0</Timestamp><DateUtc dt:dt="string">2022-12-03T03:11:18Z</DateUtc></StartTime><FrequencyChanges><FrequencyChange><Frequency dt:dt="r8">10000000</Frequency><Timestamp dt:dt="r8">7541646162286</Timestamp><Current dt:dt="r8">0</Current><DateUtc dt:dt="string">2022-12-03T03:11:18Z</DateUtc></FrequencyChange></FrequencyChanges></Clock>\n	Wisconsin-1172-1	60.009	1.0.0.245	1	-313846870	Full	3.0.3.80	3.0.3.80	12-03-2022	12/3/2022 3:11:19 AM	11:11:19	Keyboard	Keyboard	Keyboard	3.0.3.82	Keyboard	2					2	1	1		BlockProc2	List2	1											3	1	1				NumberProc2	List4											9	Button1.png	Button2.png	Button3.png	Button4.png	Yellowcross2.png							{button1}	0				9	1	9	0	TrialProc	NumberList2							1	{button1}	Button	10	33	159538	0	{Button1}	2253	161791	number
Wisconsin	1172	1	<?xml version="1.0"?>\n<Clock xmlns:dt="urn:schemas-microsoft-com:datatypes"><Description dt:dt="string">E-Prime Primary Realtime Clock</Description><StartTime><Timestamp dt:dt="int">0</Timestamp><DateUtc dt:dt="string">2022-12-03T03:11:18Z</DateUtc></StartTime><FrequencyChanges><FrequencyChange><Frequency dt:dt="r8">10000000</Frequency><Timestamp dt:dt="r8">7541646162286</Timestamp><Current dt:dt="r8">0</Current><DateUtc dt:dt="string">2022-12-03T03:11:18Z</DateUtc></FrequencyChange></FrequencyChanges></Clock>\n	Wisconsin-1172-1	60.009	1.0.0.245	1	-313846870	Full	3.0.3.80	3.0.3.80	12-03-2022	12/3/2022 3:11:19 AM	11:11:19	Keyboard	Keyboard	Keyboard	3.0.3.82	Keyboard	2					2	1	1		BlockProc2	List2	1											3	1	1				NumberProc2	List4											10	Button1.png	Button2.png	Button3.png	Button4.png	Yellowtriangle2.png							{button3}	0				10	1	10	0	TrialProc	NumberList2							0	{button3}	Button	3	33	164370	0	{Button1}	1309	165679	number
Wisconsin	1172	1	<?xml version="1.0"?>\n<Clock xmlns:dt="urn:schemas-microsoft-com:datatypes"><Description dt:dt="string">E-Prime Primary Realtime Clock</Description><StartTime><Timestamp dt:dt="int">0</Timestamp><DateUtc dt:dt="string">2022-12-03T03:11:18Z</DateUtc></StartTime><FrequencyChanges><FrequencyChange><Frequency dt:dt="r8">10000000</Frequency><Timestamp dt:dt="r8">7541646162286</Timestamp><Current dt:dt="r8">0</Current><DateUtc dt:dt="string">2022-12-03T03:11:18Z</DateUtc></FrequencyChange></FrequencyChanges></Clock>\n	Wisconsin-1172-1	60.009	1.0.0.245	1	-313846870	Full	3.0.3.80	3.0.3.80	12-03-2022	12/3/2022 3:11:19 AM	11:11:19	Keyboard	Keyboard	Keyboard	3.0.3.82	Keyboard	2					2	1	1		BlockProc2	List2	2											1	1	2				ColorProc2	List4											1	BUTTON1.png	BUTTON2.PNG	BUTTON3.png	BUTTON4.png	Greencircle1.png				3	1	1	{Button1}	0							0	TrialProc	ColorList2							1	{Button1}	Button	10	50	168269	0	{Button1}	2139	170408	color
Wisconsin	1172	1	<?xml version="1.0"?>\n<Clock xmlns:dt="urn:schemas-microsoft-com:datatypes"><Description dt:dt="string">E-Prime Primary Realtime Clock</Description><StartTime><Timestamp dt:dt="int">0</Timestamp><DateUtc dt:dt="string">2022-12-03T03:11:18Z</DateUtc></StartTime><FrequencyChanges><FrequencyChange><Frequency dt:dt="r8">10000000</Frequency><Timestamp dt:dt="r8">7541646162286</Timestamp><Current dt:dt="r8">0</Current><DateUtc dt:dt="string">2022-12-03T03:11:18Z</DateUtc></FrequencyChange></FrequencyChanges></Clock>\n	Wisconsin-1172-1	60.009	1.0.0.245	1	-313846870	Full	3.0.3.80	3.0.3.80	12-03-2022	12/3/2022 3:11:19 AM	11:11:19	Keyboard	Keyboard	Keyboard	3.0.3.82	Keyboard	2					2	1	1		BlockProc2	List2	2											1	1	2				ColorProc2	List4											2	BUTTON1.png	BUTTON2.PNG	BUTTON3.png	BUTTON4.png	Redcircle2.png				7	1	2	{Button3}	0							0	TrialProc	ColorList2							1	{Button3}	Button	1	34	172985	0	{Button3}	1014	173999	color
Wisconsin	1172	1	<?xml version="1.0"?>\n<Clock xmlns:dt="urn:schemas-microsoft-com:datatypes"><Description dt:dt="string">E-Prime Primary Realtime Clock</Description><StartTime><Timestamp dt:dt="int">0</Timestamp><DateUtc dt:dt="string">2022-12-03T03:11:18Z</DateUtc></StartTime><FrequencyChanges><FrequencyChange><Frequency dt:dt="r8">10000000</Frequency><Timestamp dt:dt="r8">7541646162286</Timestamp><Current dt:dt="r8">0</Current><DateUtc dt:dt="string">2022-12-03T03:11:18Z</DateUtc></FrequencyChange></FrequencyChanges></Clock>\n	Wisconsin-1172-1	60.009	1.0.0.245	1	-313846870	Full	3.0.3.80	3.0.3.80	12-03-2022	12/3/2022 3:11:19 AM	11:11:19	Keyboard	Keyboard	Keyboard	3.0.3.82	Keyboard	2					2	1	1		BlockProc2	List2	2											1	1	2				ColorProc2	List4											3	BUTTON1.png	BUTTON2.PNG	BUTTON3.png	BUTTON4.png	yellowtriangle3.png				10	1	3	{Button2}	0							0	TrialProc	ColorList2							1	{Button2}	Button	2	49	176600	0	{Button2}	879	177479	color
Wisconsin	1172	1	<?xml version="1.0"?>\n<Clock xmlns:dt="urn:schemas-microsoft-com:datatypes"><Description dt:dt="string">E-Prime Primary Realtime Clock</Description><StartTime><Timestamp dt:dt="int">0</Timestamp><DateUtc dt:dt="string">2022-12-03T03:11:18Z</DateUtc></StartTime><FrequencyChanges><FrequencyChange><Frequency dt:dt="r8">10000000</Frequency><Timestamp dt:dt="r8">7541646162286</Timestamp><Current dt:dt="r8">0</Current><DateUtc dt:dt="string">2022-12-03T03:11:18Z</DateUtc></FrequencyChange></FrequencyChanges></Clock>\n	Wisconsin-1172-1	60.009	1.0.0.245	1	-313846870	Full	3.0.3.80	3.0.3.80	12-03-2022	12/3/2022 3:11:19 AM	11:11:19	Keyboard	Keyboard	Keyboard	3.0.3.82	Keyboard	2					2	1	1		BlockProc2	List2	2											1	1	2				ColorProc2	List4											4	BUTTON1.png	BUTTON2.PNG	BUTTON3.png	BUTTON4.png	greenstar4.png				5	1	4	{Button1}	0							0	TrialProc	ColorList2							1	{Button1}	Button	11	33	180066	0	{Button1}	1413	181479	color
Wisconsin	1172	1	<?xml version="1.0"?>\n<Clock xmlns:dt="urn:schemas-microsoft-com:datatypes"><Description dt:dt="string">E-Prime Primary Realtime Clock</Description><StartTime><Timestamp dt:dt="int">0</Timestamp><DateUtc dt:dt="string">2022-12-03T03:11:18Z</DateUtc></StartTime><FrequencyChanges><FrequencyChange><Frequency dt:dt="r8">10000000</Frequency><Timestamp dt:dt="r8">7541646162286</Timestamp><Current dt:dt="r8">0</Current><DateUtc dt:dt="string">2022-12-03T03:11:18Z</DateUtc></FrequencyChange></FrequencyChanges></Clock>\n	Wisconsin-1172-1	60.009	1.0.0.245	1	-313846870	Full	3.0.3.80	3.0.3.80	12-03-2022	12/3/2022 3:11:19 AM	11:11:19	Keyboard	Keyboard	Keyboard	3.0.3.82	Keyboard	2					2	1	1		BlockProc2	List2	2											1	1	2				ColorProc2	List4											5	BUTTON1.png	BUTTON2.PNG	BUTTON3.png	BUTTON4.png	yellowcircle2.png				9	1	5	{Button2}	0							0	TrialProc	ColorList2							1	{Button2}	Button	9	33	184065	0	{Button2}	1382	185447	color
Wisconsin	1172	1	<?xml version="1.0"?>\n<Clock xmlns:dt="urn:schemas-microsoft-com:datatypes"><Description dt:dt="string">E-Prime Primary Realtime Clock</Description><StartTime><Timestamp dt:dt="int">0</Timestamp><DateUtc dt:dt="string">2022-12-03T03:11:18Z</DateUtc></StartTime><FrequencyChanges><FrequencyChange><Frequency dt:dt="r8">10000000</Frequency><Timestamp dt:dt="r8">7541646162286</Timestamp><Current dt:dt="r8">0</Current><DateUtc dt:dt="string">2022-12-03T03:11:18Z</DateUtc></FrequencyChange></FrequencyChanges></Clock>\n	Wisconsin-1172-1	60.009	1.0.0.245	1	-313846870	Full	3.0.3.80	3.0.3.80	12-03-2022	12/3/2022 3:11:19 AM	11:11:19	Keyboard	Keyboard	Keyboard	3.0.3.82	Keyboard	2					2	1	1		BlockProc2	List2	2											1	1	2				ColorProc2	List4											6	BUTTON1.png	BUTTON2.PNG	BUTTON3.png	BUTTON4.png	greencross4.png				4	1	6	{Button1}	0							0	TrialProc	ColorList2							1	{Button1}	Button	10	33	188031	0	{Button1}	1400	189431	color
Wisconsin	1172	1	<?xml version="1.0"?>\n<Clock xmlns:dt="urn:schemas-microsoft-com:datatypes"><Description dt:dt="string">E-Prime Primary Realtime Clock</Description><StartTime><Timestamp dt:dt="int">0</Timestamp><DateUtc dt:dt="string">2022-12-03T03:11:18Z</DateUtc></StartTime><FrequencyChanges><FrequencyChange><Frequency dt:dt="r8">10000000</Frequency><Timestamp dt:dt="r8">7541646162286</Timestamp><Current dt:dt="r8">0</Current><DateUtc dt:dt="string">2022-12-03T03:11:18Z</DateUtc></FrequencyChange></FrequencyChanges></Clock>\n	Wisconsin-1172-1	60.009	1.0.0.245	1	-313846870	Full	3.0.3.80	3.0.3.80	12-03-2022	12/3/2022 3:11:19 AM	11:11:19	Keyboard	Keyboard	Keyboard	3.0.3.82	Keyboard	2					2	1	1		BlockProc2	List2	2											1	1	2				ColorProc2	List4											7	BUTTON1.png	BUTTON2.PNG	BUTTON3.png	BUTTON4.png	bluecross1.png				1	1	7	{Button4}	0							0	TrialProc	ColorList2							1	{Button4}	Button	2	33	192013	0	{Button4}	1242	193255	color
Wisconsin	1172	1	<?xml version="1.0"?>\n<Clock xmlns:dt="urn:schemas-microsoft-com:datatypes"><Description dt:dt="string">E-Prime Primary Realtime Clock</Description><StartTime><Timestamp dt:dt="int">0</Timestamp><DateUtc dt:dt="string">2022-12-03T03:11:18Z</DateUtc></StartTime><FrequencyChanges><FrequencyChange><Frequency dt:dt="r8">10000000</Frequency><Timestamp dt:dt="r8">7541646162286</Timestamp><Current dt:dt="r8">0</Current><DateUtc dt:dt="string">2022-12-03T03:11:18Z</DateUtc></FrequencyChange></FrequencyChanges></Clock>\n	Wisconsin-1172-1	60.009	1.0.0.245	1	-313846870	Full	3.0.3.80	3.0.3.80	12-03-2022	12/3/2022 3:11:19 AM	11:11:19	Keyboard	Keyboard	Keyboard	3.0.3.82	Keyboard	2					2	1	1		BlockProc2	List2	2											1	1	2				ColorProc2	List4											8	BUTTON1.png	BUTTON2.PNG	BUTTON3.png	BUTTON4.png	bluestar3.png				2	1	8	{Button4}	0							0	TrialProc	ColorList2							1	{Button4}	Button	2	33	195829	0	{Button4}	1171	197000	color
Wisconsin	1172	1	<?xml version="1.0"?>\n<Clock xmlns:dt="urn:schemas-microsoft-com:datatypes"><Description dt:dt="string">E-Prime Primary Realtime Clock</Description><StartTime><Timestamp dt:dt="int">0</Timestamp><DateUtc dt:dt="string">2022-12-03T03:11:18Z</DateUtc></StartTime><FrequencyChanges><FrequencyChange><Frequency dt:dt="r8">10000000</Frequency><Timestamp dt:dt="r8">7541646162286</Timestamp><Current dt:dt="r8">0</Current><DateUtc dt:dt="string">2022-12-03T03:11:18Z</DateUtc></FrequencyChange></FrequencyChanges></Clock>\n	Wisconsin-1172-1	60.009	1.0.0.245	1	-313846870	Full	3.0.3.80	3.0.3.80	12-03-2022	12/3/2022 3:11:19 AM	11:11:19	Keyboard	Keyboard	Keyboard	3.0.3.82	Keyboard	2					2	1	1		BlockProc2	List2	2											1	1	2				ColorProc2	List4											9	BUTTON1.png	BUTTON2.PNG	BUTTON3.png	BUTTON4.png	redstar4.png				8	1	9	{Button3}	0							0	TrialProc	ColorList2							1	{Button3}	Button	9	50	199595	0	{Button3}	892	200487	color
Wisconsin	1172	1	<?xml version="1.0"?>\n<Clock xmlns:dt="urn:schemas-microsoft-com:datatypes"><Description dt:dt="string">E-Prime Primary Realtime Clock</Description><StartTime><Timestamp dt:dt="int">0</Timestamp><DateUtc dt:dt="string">2022-12-03T03:11:18Z</DateUtc></StartTime><FrequencyChanges><FrequencyChange><Frequency dt:dt="r8">10000000</Frequency><Timestamp dt:dt="r8">7541646162286</Timestamp><Current dt:dt="r8">0</Current><DateUtc dt:dt="string">2022-12-03T03:11:18Z</DateUtc></FrequencyChange></FrequencyChanges></Clock>\n	Wisconsin-1172-1	60.009	1.0.0.245	1	-313846870	Full	3.0.3.80	3.0.3.80	12-03-2022	12/3/2022 3:11:19 AM	11:11:19	Keyboard	Keyboard	Keyboard	3.0.3.82	Keyboard	2					2	1	1		BlockProc2	List2	2											1	1	2				ColorProc2	List4											10	BUTTON1.png	BUTTON2.PNG	BUTTON3.png	BUTTON4.png	greentriangle2.png				6	1	10	{Button1}	0							0	TrialProc	ColorList2							1	{Button1}	Button	10	34	203061	0	{Button1}	1058	204119	color
Wisconsin	1172	1	<?xml version="1.0"?>\n<Clock xmlns:dt="urn:schemas-microsoft-com:datatypes"><Description dt:dt="string">E-Prime Primary Realtime Clock</Description><StartTime><Timestamp dt:dt="int">0</Timestamp><DateUtc dt:dt="string">2022-12-03T03:11:18Z</DateUtc></StartTime><FrequencyChanges><FrequencyChange><Frequency dt:dt="r8">10000000</Frequency><Timestamp dt:dt="r8">7541646162286</Timestamp><Current dt:dt="r8">0</Current><DateUtc dt:dt="string">2022-12-03T03:11:18Z</DateUtc></FrequencyChange></FrequencyChanges></Clock>\n	Wisconsin-1172-1	60.009	1.0.0.245	1	-313846870	Full	3.0.3.80	3.0.3.80	12-03-2022	12/3/2022 3:11:19 AM	11:11:19	Keyboard	Keyboard	Keyboard	3.0.3.82	Keyboard	2					2	1	1		BlockProc2	List2	3											2	1	3				ShapeProc2	List4											1	Button1.png	Button2.png	Button3.png	Button4.png	Yellowstar2.png							{button4}	0							0	TrialProc	ShapeList2				9	1	1	0	{button4}	Button	10	50	206710	0	{Button2}	1042	207752	Shape
Wisconsin	1172	1	<?xml version="1.0"?>\n<Clock xmlns:dt="urn:schemas-microsoft-com:datatypes"><Description dt:dt="string">E-Prime Primary Realtime Clock</Description><StartTime><Timestamp dt:dt="int">0</Timestamp><DateUtc dt:dt="string">2022-12-03T03:11:18Z</DateUtc></StartTime><FrequencyChanges><FrequencyChange><Frequency dt:dt="r8">10000000</Frequency><Timestamp dt:dt="r8">7541646162286</Timestamp><Current dt:dt="r8">0</Current><DateUtc dt:dt="string">2022-12-03T03:11:18Z</DateUtc></FrequencyChange></FrequencyChanges></Clock>\n	Wisconsin-1172-1	60.009	1.0.0.245	1	-313846870	Full	3.0.3.80	3.0.3.80	12-03-2022	12/3/2022 3:11:19 AM	11:11:19	Keyboard	Keyboard	Keyboard	3.0.3.82	Keyboard	2					2	1	1		BlockProc2	List2	3											2	1	3				ShapeProc2	List4											2	Button1.png	Button2.png	Button3.png	Button4.png	Bluetriangle2.png							{button2}	0							0	TrialProc	ShapeList2				2	1	2	1	{button2}	Button	2	33	210325	0	{Button2}	1562	211887	Shape
Wisconsin	1172	1	<?xml version="1.0"?>\n<Clock xmlns:dt="urn:schemas-microsoft-com:datatypes"><Description dt:dt="string">E-Prime Primary Realtime Clock</Description><StartTime><Timestamp dt:dt="int">0</Timestamp><DateUtc dt:dt="string">2022-12-03T03:11:18Z</DateUtc></StartTime><FrequencyChanges><FrequencyChange><Frequency dt:dt="r8">10000000</Frequency><Timestamp dt:dt="r8">7541646162286</Timestamp><Current dt:dt="r8">0</Current><DateUtc dt:dt="string">2022-12-03T03:11:18Z</DateUtc></FrequencyChange></FrequencyChanges></Clock>\n	Wisconsin-1172-1	60.009	1.0.0.245	1	-313846870	Full	3.0.3.80	3.0.3.80	12-03-2022	12/3/2022 3:11:19 AM	11:11:19	Keyboard	Keyboard	Keyboard	3.0.3.82	Keyboard	2					2	1	1		BlockProc2	List2	3											2	1	3				ShapeProc2	List4											3	Button1.png	Button2.png	Button3.png	Button4.png	Bluecircle3.png							{button1}	0							0	TrialProc	ShapeList2				1	1	3	1	{button1}	Button	11	33	214474	0	{Button1}	2278	216752	Shape
Wisconsin	1172	1	<?xml version="1.0"?>\n<Clock xmlns:dt="urn:schemas-microsoft-com:datatypes"><Description dt:dt="string">E-Prime Primary Realtime Clock</Description><StartTime><Timestamp dt:dt="int">0</Timestamp><DateUtc dt:dt="string">2022-12-03T03:11:18Z</DateUtc></StartTime><FrequencyChanges><FrequencyChange><Frequency dt:dt="r8">10000000</Frequency><Timestamp dt:dt="r8">7541646162286</Timestamp><Current dt:dt="r8">0</Current><DateUtc dt:dt="string">2022-12-03T03:11:18Z</DateUtc></FrequencyChange></FrequencyChanges></Clock>\n	Wisconsin-1172-1	60.009	1.0.0.245	1	-313846870	Full	3.0.3.80	3.0.3.80	12-03-2022	12/3/2022 3:11:19 AM	11:11:19	Keyboard	Keyboard	Keyboard	3.0.3.82	Keyboard	2					2	1	1		BlockProc2	List2	3											2	1	3				ShapeProc2	List4											4	Button1.png	Button2.png	Button3.png	Button4.png	Yellowtriangle1.png							{button2}	0							0	TrialProc	ShapeList2				10	1	4	1	{button2}	Button	2	33	219323	0	{Button2}	1125	220448	Shape
Wisconsin	1172	1	<?xml version="1.0"?>\n<Clock xmlns:dt="urn:schemas-microsoft-com:datatypes"><Description dt:dt="string">E-Prime Primary Realtime Clock</Description><StartTime><Timestamp dt:dt="int">0</Timestamp><DateUtc dt:dt="string">2022-12-03T03:11:18Z</DateUtc></StartTime><FrequencyChanges><FrequencyChange><Frequency dt:dt="r8">10000000</Frequency><Timestamp dt:dt="r8">7541646162286</Timestamp><Current dt:dt="r8">0</Current><DateUtc dt:dt="string">2022-12-03T03:11:18Z</DateUtc></FrequencyChange></FrequencyChanges></Clock>\n	Wisconsin-1172-1	60.009	1.0.0.245	1	-313846870	Full	3.0.3.80	3.0.3.80	12-03-2022	12/3/2022 3:11:19 AM	11:11:19	Keyboard	Keyboard	Keyboard	3.0.3.82	Keyboard	2					2	1	1		BlockProc2	List2	3											2	1	3				ShapeProc2	List4											5	Button1.png	Button2.png	Button3.png	Button4.png	Redcross2.png							{button3}	0							0	TrialProc	ShapeList2				5	1	5	1	{button3}	Button	11	33	223022	0	{Button3}	1138	224160	Shape
Wisconsin	1172	1	<?xml version="1.0"?>\n<Clock xmlns:dt="urn:schemas-microsoft-com:datatypes"><Description dt:dt="string">E-Prime Primary Realtime Clock</Description><StartTime><Timestamp dt:dt="int">0</Timestamp><DateUtc dt:dt="string">2022-12-03T03:11:18Z</DateUtc></StartTime><FrequencyChanges><FrequencyChange><Frequency dt:dt="r8">10000000</Frequency><Timestamp dt:dt="r8">7541646162286</Timestamp><Current dt:dt="r8">0</Current><DateUtc dt:dt="string">2022-12-03T03:11:18Z</DateUtc></FrequencyChange></FrequencyChanges></Clock>\n	Wisconsin-1172-1	60.009	1.0.0.245	1	-313846870	Full	3.0.3.80	3.0.3.80	12-03-2022	12/3/2022 3:11:19 AM	11:11:19	Keyboard	Keyboard	Keyboard	3.0.3.82	Keyboard	2					2	1	1		BlockProc2	List2	3											2	1	3				ShapeProc2	List4											6	Button1.png	Button2.png	Button3.png	Button4.png	Redtriangle3.png							{button2}	0							0	TrialProc	ShapeList2				7	1	6	1	{button2}	Button	10	33	226738	0	{Button2}	1294	228032	Shape
Wisconsin	1172	1	<?xml version="1.0"?>\n<Clock xmlns:dt="urn:schemas-microsoft-com:datatypes"><Description dt:dt="string">E-Prime Primary Realtime Clock</Description><StartTime><Timestamp dt:dt="int">0</Timestamp><DateUtc dt:dt="string">2022-12-03T03:11:18Z</DateUtc></StartTime><FrequencyChanges><FrequencyChange><Frequency dt:dt="r8">10000000</Frequency><Timestamp dt:dt="r8">7541646162286</Timestamp><Current dt:dt="r8">0</Current><DateUtc dt:dt="string">2022-12-03T03:11:18Z</DateUtc></FrequencyChange></FrequencyChanges></Clock>\n	Wisconsin-1172-1	60.009	1.0.0.245	1	-313846870	Full	3.0.3.80	3.0.3.80	12-03-2022	12/3/2022 3:11:19 AM	11:11:19	Keyboard	Keyboard	Keyboard	3.0.3.82	Keyboard	2					2	1	1		BlockProc2	List2	3											2	1	3				ShapeProc2	List4											7	Button1.png	Button2.png	Button3.png	Button4.png	Greenstar3.png							{button4}	0							0	TrialProc	ShapeList2				3	1	7	1	{button4}	Button	9	33	230604	0	{Button4}	2132	232736	Shape
Wisconsin	1172	1	<?xml version="1.0"?>\n<Clock xmlns:dt="urn:schemas-microsoft-com:datatypes"><Description dt:dt="string">E-Prime Primary Realtime Clock</Description><StartTime><Timestamp dt:dt="int">0</Timestamp><DateUtc dt:dt="string">2022-12-03T03:11:18Z</DateUtc></StartTime><FrequencyChanges><FrequencyChange><Frequency dt:dt="r8">10000000</Frequency><Timestamp dt:dt="r8">7541646162286</Timestamp><Current dt:dt="r8">0</Current><DateUtc dt:dt="string">2022-12-03T03:11:18Z</DateUtc></FrequencyChange></FrequencyChanges></Clock>\n	Wisconsin-1172-1	60.009	1.0.0.245	1	-313846870	Full	3.0.3.80	3.0.3.80	12-03-2022	12/3/2022 3:11:19 AM	11:11:19	Keyboard	Keyboard	Keyboard	3.0.3.82	Keyboard	2					2	1	1		BlockProc2	List2	3											2	1	3				ShapeProc2	List4											8	Button1.png	Button2.png	Button3.png	Button4.png	Redstar3.png							{button4}	0							0	TrialProc	ShapeList2				6	1	8	1	{button4}	Button	2	33	235319	0	{Button4}	1816	237135	Shape
Wisconsin	1172	1	<?xml version="1.0"?>\n<Clock xmlns:dt="urn:schemas-microsoft-com:datatypes"><Description dt:dt="string">E-Prime Primary Realtime Clock</Description><StartTime><Timestamp dt:dt="int">0</Timestamp><DateUtc dt:dt="string">2022-12-03T03:11:18Z</DateUtc></StartTime><FrequencyChanges><FrequencyChange><Frequency dt:dt="r8">10000000</Frequency><Timestamp dt:dt="r8">7541646162286</Timestamp><Current dt:dt="r8">0</Current><DateUtc dt:dt="string">2022-12-03T03:11:18Z</DateUtc></FrequencyChange></FrequencyChanges></Clock>\n	Wisconsin-1172-1	60.009	1.0.0.245	1	-313846870	Full	3.0.3.80	3.0.3.80	12-03-2022	12/3/2022 3:11:19 AM	11:11:19	Keyboard	Keyboard	Keyboard	3.0.3.82	Keyboard	2					2	1	1		BlockProc2	List2	3											2	1	3				ShapeProc2	List4											9	Button1.png	Button2.png	Button3.png	Button4.png	yellowcross4.png							{button3}	0							0	TrialProc	ShapeList2				8	1	9	1	{button3}	Button	10	33	239718	0	{Button3}	1194	240912	Shape
Wisconsin	1172	1	<?xml version="1.0"?>\n<Clock xmlns:dt="urn:schemas-microsoft-com:datatypes"><Description dt:dt="string">E-Prime Primary Realtime Clock</Description><StartTime><Timestamp dt:dt="int">0</Timestamp><DateUtc dt:dt="string">2022-12-03T03:11:18Z</DateUtc></StartTime><FrequencyChanges><FrequencyChange><Frequency dt:dt="r8">10000000</Frequency><Timestamp dt:dt="r8">7541646162286</Timestamp><Current dt:dt="r8">0</Current><DateUtc dt:dt="string">2022-12-03T03:11:18Z</DateUtc></FrequencyChange></FrequencyChanges></Clock>\n	Wisconsin-1172-1	60.009	1.0.0.245	1	-313846870	Full	3.0.3.80	3.0.3.80	12-03-2022	12/3/2022 3:11:19 AM	11:11:19	Keyboard	Keyboard	Keyboard	3.0.3.82	Keyboard	2					2	1	1		BlockProc2	List2	3											2	1	3				ShapeProc2	List4											10	Button1.png	Button2.png	Button3.png	Button4.png	redcircle1.png							{button1}	0							0	TrialProc	ShapeList2				4	1	10	1	{button1}	Button	10	33	243484	0	{Button1}	1340	244824	Shape
Wisconsin	1172	1	<?xml version="1.0"?>\n<Clock xmlns:dt="urn:schemas-microsoft-com:datatypes"><Description dt:dt="string">E-Prime Primary Realtime Clock</Description><StartTime><Timestamp dt:dt="int">0</Timestamp><DateUtc dt:dt="string">2022-12-03T03:11:18Z</DateUtc></StartTime><FrequencyChanges><FrequencyChange><Frequency dt:dt="r8">10000000</Frequency><Timestamp dt:dt="r8">7541646162286</Timestamp><Current dt:dt="r8">0</Current><DateUtc dt:dt="string">2022-12-03T03:11:18Z</DateUtc></FrequencyChange></FrequencyChanges></Clock>\n	Wisconsin-1172-1	60.009	1.0.0.245	1	-313846870	Full	3.0.3.80	3.0.3.80	12-03-2022	12/3/2022 3:11:19 AM	11:11:19	Keyboard	Keyboard	Keyboard	3.0.3.82	Keyboard	3					1	1	2		BlockProc	List2	1								1	1	1							ColorProc	List3											1	BUTTON1.png	BUTTON2.PNG	BUTTON3.png	BUTTON4.png	greentriangle3.png	7	1	1				{button1}	0							0	TrialProc	ColorList							0	{button1}	Button	9	33	247400	0	{Button2}	1456	248856	Color
Wisconsin	1172	1	<?xml version="1.0"?>\n<Clock xmlns:dt="urn:schemas-microsoft-com:datatypes"><Description dt:dt="string">E-Prime Primary Realtime Clock</Description><StartTime><Timestamp dt:dt="int">0</Timestamp><DateUtc dt:dt="string">2022-12-03T03:11:18Z</DateUtc></StartTime><FrequencyChanges><FrequencyChange><Frequency dt:dt="r8">10000000</Frequency><Timestamp dt:dt="r8">7541646162286</Timestamp><Current dt:dt="r8">0</Current><DateUtc dt:dt="string">2022-12-03T03:11:18Z</DateUtc></FrequencyChange></FrequencyChanges></Clock>\n	Wisconsin-1172-1	60.009	1.0.0.245	1	-313846870	Full	3.0.3.80	3.0.3.80	12-03-2022	12/3/2022 3:11:19 AM	11:11:19	Keyboard	Keyboard	Keyboard	3.0.3.82	Keyboard	3					1	1	2		BlockProc	List2	1								1	1	1							ColorProc	List3											2	BUTTON1.png	BUTTON2.PNG	BUTTON3.png	BUTTON4.png	bluetriangle3.png	3	1	2				{button4}	0							0	TrialProc	ColorList							1	{button4}	Button	10	33	251432	0	{Button4}	1344	252776	Color
Wisconsin	1172	1	<?xml version="1.0"?>\n<Clock xmlns:dt="urn:schemas-microsoft-com:datatypes"><Description dt:dt="string">E-Prime Primary Realtime Clock</Description><StartTime><Timestamp dt:dt="int">0</Timestamp><DateUtc dt:dt="string">2022-12-03T03:11:18Z</DateUtc></StartTime><FrequencyChanges><FrequencyChange><Frequency dt:dt="r8">10000000</Frequency><Timestamp dt:dt="r8">7541646162286</Timestamp><Current dt:dt="r8">0</Current><DateUtc dt:dt="string">2022-12-03T03:11:18Z</DateUtc></FrequencyChange></FrequencyChanges></Clock>\n	Wisconsin-1172-1	60.009	1.0.0.245	1	-313846870	Full	3.0.3.80	3.0.3.80	12-03-2022	12/3/2022 3:11:19 AM	11:11:19	Keyboard	Keyboard	Keyboard	3.0.3.82	Keyboard	3					1	1	2		BlockProc	List2	1								1	1	1							ColorProc	List3											3	BUTTON1.png	BUTTON2.PNG	BUTTON3.png	BUTTON4.png	redcircle3.png	8	1	3				{button3}	0							0	TrialProc	ColorList							1	{button3}	Button	9	33	255348	0	{Button3}	1020	256368	Color
Wisconsin	1172	1	<?xml version="1.0"?>\n<Clock xmlns:dt="urn:schemas-microsoft-com:datatypes"><Description dt:dt="string">E-Prime Primary Realtime Clock</Description><StartTime><Timestamp dt:dt="int">0</Timestamp><DateUtc dt:dt="string">2022-12-03T03:11:18Z</DateUtc></StartTime><FrequencyChanges><FrequencyChange><Frequency dt:dt="r8">10000000</Frequency><Timestamp dt:dt="r8">7541646162286</Timestamp><Current dt:dt="r8">0</Current><DateUtc dt:dt="string">2022-12-03T03:11:18Z</DateUtc></FrequencyChange></FrequencyChanges></Clock>\n	Wisconsin-1172-1	60.009	1.0.0.245	1	-313846870	Full	3.0.3.80	3.0.3.80	12-03-2022	12/3/2022 3:11:19 AM	11:11:19	Keyboard	Keyboard	Keyboard	3.0.3.82	Keyboard	3					1	1	2		BlockProc	List2	1								1	1	1							ColorProc	List3											4	BUTTON1.png	BUTTON2.PNG	BUTTON3.png	BUTTON4.png	greencircle3.png	4	1	4				{button1}	0							0	TrialProc	ColorList							1	{button1}	Button	10	50	258964	0	{Button1}	811	259775	Color
Wisconsin	1172	1	<?xml version="1.0"?>\n<Clock xmlns:dt="urn:schemas-microsoft-com:datatypes"><Description dt:dt="string">E-Prime Primary Realtime Clock</Description><StartTime><Timestamp dt:dt="int">0</Timestamp><DateUtc dt:dt="string">2022-12-03T03:11:18Z</DateUtc></StartTime><FrequencyChanges><FrequencyChange><Frequency dt:dt="r8">10000000</Frequency><Timestamp dt:dt="r8">7541646162286</Timestamp><Current dt:dt="r8">0</Current><DateUtc dt:dt="string">2022-12-03T03:11:18Z</DateUtc></FrequencyChange></FrequencyChanges></Clock>\n	Wisconsin-1172-1	60.009	1.0.0.245	1	-313846870	Full	3.0.3.80	3.0.3.80	12-03-2022	12/3/2022 3:11:19 AM	11:11:19	Keyboard	Keyboard	Keyboard	3.0.3.82	Keyboard	3					1	1	2		BlockProc	List2	1								1	1	1							ColorProc	List3											5	BUTTON1.png	BUTTON2.PNG	BUTTON3.png	BUTTON4.png	yellowstar3.png	10	1	5				{button2}	0							0	TrialProc	ColorList							1	{button2}	Button	9	33	262363	0	{Button2}	2061	264424	Color
Wisconsin	1172	1	<?xml version="1.0"?>\n<Clock xmlns:dt="urn:schemas-microsoft-com:datatypes"><Description dt:dt="string">E-Prime Primary Realtime Clock</Description><StartTime><Timestamp dt:dt="int">0</Timestamp><DateUtc dt:dt="string">2022-12-03T03:11:18Z</DateUtc></StartTime><FrequencyChanges><FrequencyChange><Frequency dt:dt="r8">10000000</Frequency><Timestamp dt:dt="r8">7541646162286</Timestamp><Current dt:dt="r8">0</Current><DateUtc dt:dt="string">2022-12-03T03:11:18Z</DateUtc></FrequencyChange></FrequencyChanges></Clock>\n	Wisconsin-1172-1	60.009	1.0.0.245	1	-313846870	Full	3.0.3.80	3.0.3.80	12-03-2022	12/3/2022 3:11:19 AM	11:11:19	Keyboard	Keyboard	Keyboard	3.0.3.82	Keyboard	3					1	1	2		BlockProc	List2	1								1	1	1							ColorProc	List3											6	BUTTON1.png	BUTTON2.PNG	BUTTON3.png	BUTTON4.png	bluecircle1.png	1	1	6				{button4}	0							0	TrialProc	ColorList							1	{button4}	Button	9	33	266995	0	{Button4}	1668	268663	Color
Wisconsin	1172	1	<?xml version="1.0"?>\n<Clock xmlns:dt="urn:schemas-microsoft-com:datatypes"><Description dt:dt="string">E-Prime Primary Realtime Clock</Description><StartTime><Timestamp dt:dt="int">0</Timestamp><DateUtc dt:dt="string">2022-12-03T03:11:18Z</DateUtc></StartTime><FrequencyChanges><FrequencyChange><Frequency dt:dt="r8">10000000</Frequency><Timestamp dt:dt="r8">7541646162286</Timestamp><Current dt:dt="r8">0</Current><DateUtc dt:dt="string">2022-12-03T03:11:18Z</DateUtc></FrequencyChange></FrequencyChanges></Clock>\n	Wisconsin-1172-1	60.009	1.0.0.245	1	-313846870	Full	3.0.3.80	3.0.3.80	12-03-2022	12/3/2022 3:11:19 AM	11:11:19	Keyboard	Keyboard	Keyboard	3.0.3.82	Keyboard	3					1	1	2		BlockProc	List2	1								1	1	1							ColorProc	List3											7	BUTTON1.png	BUTTON2.PNG	BUTTON3.png	BUTTON4.png	yellowcircle1.png	9	1	7				{button2}	0							0	TrialProc	ColorList							1	{button2}	Button	2	33	271244	0	{Button2}	996	272240	Color
Wisconsin	1172	1	<?xml version="1.0"?>\n<Clock xmlns:dt="urn:schemas-microsoft-com:datatypes"><Description dt:dt="string">E-Prime Primary Realtime Clock</Description><StartTime><Timestamp dt:dt="int">0</Timestamp><DateUtc dt:dt="string">2022-12-03T03:11:18Z</DateUtc></StartTime><FrequencyChanges><FrequencyChange><Frequency dt:dt="r8">10000000</Frequency><Timestamp dt:dt="r8">7541646162286</Timestamp><Current dt:dt="r8">0</Current><DateUtc dt:dt="string">2022-12-03T03:11:18Z</DateUtc></FrequencyChange></FrequencyChanges></Clock>\n	Wisconsin-1172-1	60.009	1.0.0.245	1	-313846870	Full	3.0.3.80	3.0.3.80	12-03-2022	12/3/2022 3:11:19 AM	11:11:19	Keyboard	Keyboard	Keyboard	3.0.3.82	Keyboard	3					1	1	2		BlockProc	List2	1								1	1	1							ColorProc	List3											8	BUTTON1.png	BUTTON2.PNG	BUTTON3.png	BUTTON4.png	bluecross2.png	2	1	8				{button4}	0							0	TrialProc	ColorList							0	{button4}	Button	10	33	274826	0	{Button3}	1005	275831	Color
Wisconsin	1172	1	<?xml version="1.0"?>\n<Clock xmlns:dt="urn:schemas-microsoft-com:datatypes"><Description dt:dt="string">E-Prime Primary Realtime Clock</Description><StartTime><Timestamp dt:dt="int">0</Timestamp><DateUtc dt:dt="string">2022-12-03T03:11:18Z</DateUtc></StartTime><FrequencyChanges><FrequencyChange><Frequency dt:dt="r8">10000000</Frequency><Timestamp dt:dt="r8">7541646162286</Timestamp><Current dt:dt="r8">0</Current><DateUtc dt:dt="string">2022-12-03T03:11:18Z</DateUtc></FrequencyChange></FrequencyChanges></Clock>\n	Wisconsin-1172-1	60.009	1.0.0.245	1	-313846870	Full	3.0.3.80	3.0.3.80	12-03-2022	12/3/2022 3:11:19 AM	11:11:19	Keyboard	Keyboard	Keyboard	3.0.3.82	Keyboard	3					1	1	2		BlockProc	List2	1								1	1	1							ColorProc	List3											9	BUTTON1.png	BUTTON2.PNG	BUTTON3.png	BUTTON4.png	greentriangle1.png	6	1	9				{button1}	0							0	TrialProc	ColorList							1	{button1}	Button	10	33	278409	0	{Button1}	1119	279528	Color
Wisconsin	1172	1	<?xml version="1.0"?>\n<Clock xmlns:dt="urn:schemas-microsoft-com:datatypes"><Description dt:dt="string">E-Prime Primary Realtime Clock</Description><StartTime><Timestamp dt:dt="int">0</Timestamp><DateUtc dt:dt="string">2022-12-03T03:11:18Z</DateUtc></StartTime><FrequencyChanges><FrequencyChange><Frequency dt:dt="r8">10000000</Frequency><Timestamp dt:dt="r8">7541646162286</Timestamp><Current dt:dt="r8">0</Current><DateUtc dt:dt="string">2022-12-03T03:11:18Z</DateUtc></FrequencyChange></FrequencyChanges></Clock>\n	Wisconsin-1172-1	60.009	1.0.0.245	1	-313846870	Full	3.0.3.80	3.0.3.80	12-03-2022	12/3/2022 3:11:19 AM	11:11:19	Keyboard	Keyboard	Keyboard	3.0.3.82	Keyboard	3					1	1	2		BlockProc	List2	1								1	1	1							ColorProc	List3											10	BUTTON1.png	BUTTON2.PNG	BUTTON3.png	BUTTON4.png	greenstar2.png	5	1	10				{button1}	0							0	TrialProc	ColorList							1	{button1}	Button	10	33	282108	0	{Button1}	828	282936	Color
Wisconsin	1172	1	<?xml version="1.0"?>\n<Clock xmlns:dt="urn:schemas-microsoft-com:datatypes"><Description dt:dt="string">E-Prime Primary Realtime Clock</Description><StartTime><Timestamp dt:dt="int">0</Timestamp><DateUtc dt:dt="string">2022-12-03T03:11:18Z</DateUtc></StartTime><FrequencyChanges><FrequencyChange><Frequency dt:dt="r8">10000000</Frequency><Timestamp dt:dt="r8">7541646162286</Timestamp><Current dt:dt="r8">0</Current><DateUtc dt:dt="string">2022-12-03T03:11:18Z</DateUtc></FrequencyChange></FrequencyChanges></Clock>\n	Wisconsin-1172-1	60.009	1.0.0.245	1	-313846870	Full	3.0.3.80	3.0.3.80	12-03-2022	12/3/2022 3:11:19 AM	11:11:19	Keyboard	Keyboard	Keyboard	3.0.3.82	Keyboard	3					1	1	2		BlockProc	List2	2								3	1	2							NumberProc	List3											1	Button1.png	Button2.png	Button3.png	Button4.png	Bluecircle4.png							{Button2}	0	1	1	1				0	TrialProc	NumberList							0	{Button2}	Button	10	33	285507	0	{Button4}	989	286496	number
Wisconsin	1172	1	<?xml version="1.0"?>\n<Clock xmlns:dt="urn:schemas-microsoft-com:datatypes"><Description dt:dt="string">E-Prime Primary Realtime Clock</Description><StartTime><Timestamp dt:dt="int">0</Timestamp><DateUtc dt:dt="string">2022-12-03T03:11:18Z</DateUtc></StartTime><FrequencyChanges><FrequencyChange><Frequency dt:dt="r8">10000000</Frequency><Timestamp dt:dt="r8">7541646162286</Timestamp><Current dt:dt="r8">0</Current><DateUtc dt:dt="string">2022-12-03T03:11:18Z</DateUtc></FrequencyChange></FrequencyChanges></Clock>\n	Wisconsin-1172-1	60.009	1.0.0.245	1	-313846870	Full	3.0.3.80	3.0.3.80	12-03-2022	12/3/2022 3:11:19 AM	11:11:19	Keyboard	Keyboard	Keyboard	3.0.3.82	Keyboard	3					1	1	2		BlockProc	List2	2								3	1	2							NumberProc	List3											2	Button1.png	Button2.png	Button3.png	Button4.png	Greencross3.png							{Button3}	0	5	1	2				0	TrialProc	NumberList							1	{Button3}	Button	10	33	289073	0	{Button3}	1735	290808	number
Wisconsin	1172	1	<?xml version="1.0"?>\n<Clock xmlns:dt="urn:schemas-microsoft-com:datatypes"><Description dt:dt="string">E-Prime Primary Realtime Clock</Description><StartTime><Timestamp dt:dt="int">0</Timestamp><DateUtc dt:dt="string">2022-12-03T03:11:18Z</DateUtc></StartTime><FrequencyChanges><FrequencyChange><Frequency dt:dt="r8">10000000</Frequency><Timestamp dt:dt="r8">7541646162286</Timestamp><Current dt:dt="r8">0</Current><DateUtc dt:dt="string">2022-12-03T03:11:18Z</DateUtc></FrequencyChange></FrequencyChanges></Clock>\n	Wisconsin-1172-1	60.009	1.0.0.245	1	-313846870	Full	3.0.3.80	3.0.3.80	12-03-2022	12/3/2022 3:11:19 AM	11:11:19	Keyboard	Keyboard	Keyboard	3.0.3.82	Keyboard	3					1	1	2		BlockProc	List2	2								3	1	2							NumberProc	List3											3	Button1.png	Button2.png	Button3.png	Button4.png	Redtriangle4.png							{Button2}	0	8	1	3				0	TrialProc	NumberList							1	{Button2}	Button	9	33	293389	0	{Button2}	1291	294680	number
Wisconsin	1172	1	<?xml version="1.0"?>\n<Clock xmlns:dt="urn:schemas-microsoft-com:datatypes"><Description dt:dt="string">E-Prime Primary Realtime Clock</Description><StartTime><Timestamp dt:dt="int">0</Timestamp><DateUtc dt:dt="string">2022-12-03T03:11:18Z</DateUtc></StartTime><FrequencyChanges><FrequencyChange><Frequency dt:dt="r8">10000000</Frequency><Timestamp dt:dt="r8">7541646162286</Timestamp><Current dt:dt="r8">0</Current><DateUtc dt:dt="string">2022-12-03T03:11:18Z</DateUtc></FrequencyChange></FrequencyChanges></Clock>\n	Wisconsin-1172-1	60.009	1.0.0.245	1	-313846870	Full	3.0.3.80	3.0.3.80	12-03-2022	12/3/2022 3:11:19 AM	11:11:19	Keyboard	Keyboard	Keyboard	3.0.3.82	Keyboard	3					1	1	2		BlockProc	List2	2								3	1	2							NumberProc	List3											4	Button1.png	Button2.png	Button3.png	Button4.png	Yellowcross1.png							{Button4}	0	9	1	4				0	TrialProc	NumberList							0	{Button4}	Button	10	33	297254	0	{Button3}	1162	298416	number
Wisconsin	1172	1	<?xml version="1.0"?>\n<Clock xmlns:dt="urn:schemas-microsoft-com:datatypes"><Description dt:dt="string">E-Prime Primary Realtime Clock</Description><StartTime><Timestamp dt:dt="int">0</Timestamp><DateUtc dt:dt="string">2022-12-03T03:11:18Z</DateUtc></StartTime><FrequencyChanges><FrequencyChange><Frequency dt:dt="r8">10000000</Frequency><Timestamp dt:dt="r8">7541646162286</Timestamp><Current dt:dt="r8">0</Current><DateUtc dt:dt="string">2022-12-03T03:11:18Z</DateUtc></FrequencyChange></FrequencyChanges></Clock>\n	Wisconsin-1172-1	60.009	1.0.0.245	1	-313846870	Full	3.0.3.80	3.0.3.80	12-03-2022	12/3/2022 3:11:19 AM	11:11:19	Keyboard	Keyboard	Keyboard	3.0.3.82	Keyboard	3					1	1	2		BlockProc	List2	2								3	1	2							NumberProc	List3											5	Button1.png	Button2.png	Button3.png	Button4.png	Redstar2.png							{Button1}	0	7	1	5				0	TrialProc	NumberList							0	{Button1}	Button	10	33	300987	0	{Button4}	2493	303480	number
Wisconsin	1172	1	<?xml version="1.0"?>\n<Clock xmlns:dt="urn:schemas-microsoft-com:datatypes"><Description dt:dt="string">E-Prime Primary Realtime Clock</Description><StartTime><Timestamp dt:dt="int">0</Timestamp><DateUtc dt:dt="string">2022-12-03T03:11:18Z</DateUtc></StartTime><FrequencyChanges><FrequencyChange><Frequency dt:dt="r8">10000000</Frequency><Timestamp dt:dt="r8">7541646162286</Timestamp><Current dt:dt="r8">0</Current><DateUtc dt:dt="string">2022-12-03T03:11:18Z</DateUtc></FrequencyChange></FrequencyChanges></Clock>\n	Wisconsin-1172-1	60.009	1.0.0.245	1	-313846870	Full	3.0.3.80	3.0.3.80	12-03-2022	12/3/2022 3:11:19 AM	11:11:19	Keyboard	Keyboard	Keyboard	3.0.3.82	Keyboard	3					1	1	2		BlockProc	List2	2								3	1	2							NumberProc	List3											6	Button1.png	Button2.png	Button3.png	Button4.png	Yellowcross3.png							{Button3}	0	10	1	6				0	TrialProc	NumberList							0	{Button3}	Button	10	50	306069	0	{Button2}	923	306992	number
Wisconsin	1172	1	<?xml version="1.0"?>\n<Clock xmlns:dt="urn:schemas-microsoft-com:datatypes"><Description dt:dt="string">E-Prime Primary Realtime Clock</Description><StartTime><Timestamp dt:dt="int">0</Timestamp><DateUtc dt:dt="string">2022-12-03T03:11:18Z</DateUtc></StartTime><FrequencyChanges><FrequencyChange><Frequency dt:dt="r8">10000000</Frequency><Timestamp dt:dt="r8">7541646162286</Timestamp><Current dt:dt="r8">0</Current><DateUtc dt:dt="string">2022-12-03T03:11:18Z</DateUtc></FrequencyChange></FrequencyChanges></Clock>\n	Wisconsin-1172-1	60.009	1.0.0.245	1	-313846870	Full	3.0.3.80	3.0.3.80	12-03-2022	12/3/2022 3:11:19 AM	11:11:19	Keyboard	Keyboard	Keyboard	3.0.3.82	Keyboard	3					1	1	2		BlockProc	List2	2								3	1	2							NumberProc	List3											7	Button1.png	Button2.png	Button3.png	Button4.png	Greencircle4.png							{Button2}	0	4	1	7				0	TrialProc	NumberList							1	{Button2}	Button	10	33	309568	0	{Button2}	1968	311536	number
Wisconsin	1172	1	<?xml version="1.0"?>\n<Clock xmlns:dt="urn:schemas-microsoft-com:datatypes"><Description dt:dt="string">E-Prime Primary Realtime Clock</Description><StartTime><Timestamp dt:dt="int">0</Timestamp><DateUtc dt:dt="string">2022-12-03T03:11:18Z</DateUtc></StartTime><FrequencyChanges><FrequencyChange><Frequency dt:dt="r8">10000000</Frequency><Timestamp dt:dt="r8">7541646162286</Timestamp><Current dt:dt="r8">0</Current><DateUtc dt:dt="string">2022-12-03T03:11:18Z</DateUtc></FrequencyChange></FrequencyChanges></Clock>\n	Wisconsin-1172-1	60.009	1.0.0.245	1	-313846870	Full	3.0.3.80	3.0.3.80	12-03-2022	12/3/2022 3:11:19 AM	11:11:19	Keyboard	Keyboard	Keyboard	3.0.3.82	Keyboard	3					1	1	2		BlockProc	List2	2								3	1	2							NumberProc	List3											8	Button1.png	Button2.png	Button3.png	Button4.png	Redcircle4.png							{Button2}	0	6	1	8				0	TrialProc	NumberList							1	{Button2}	Button	10	33	314117	0	{Button2}	1299	315416	number
Wisconsin	1172	1	<?xml version="1.0"?>\n<Clock xmlns:dt="urn:schemas-microsoft-com:datatypes"><Description dt:dt="string">E-Prime Primary Realtime Clock</Description><StartTime><Timestamp dt:dt="int">0</Timestamp><DateUtc dt:dt="string">2022-12-03T03:11:18Z</DateUtc></StartTime><FrequencyChanges><FrequencyChange><Frequency dt:dt="r8">10000000</Frequency><Timestamp dt:dt="r8">7541646162286</Timestamp><Current dt:dt="r8">0</Current><DateUtc dt:dt="string">2022-12-03T03:11:18Z</DateUtc></FrequencyChange></FrequencyChanges></Clock>\n	Wisconsin-1172-1	60.009	1.0.0.245	1	-313846870	Full	3.0.3.80	3.0.3.80	12-03-2022	12/3/2022 3:11:19 AM	11:11:19	Keyboard	Keyboard	Keyboard	3.0.3.82	Keyboard	3					1	1	2		BlockProc	List2	2								3	1	2							NumberProc	List3											9	Button1.png	Button2.png	Button3.png	Button4.png	Bluestar2.png							{Button1}	0	2	1	9				0	TrialProc	NumberList							1	{Button1}	Button	10	33	317999	0	{Button1}	1537	319536	number
Wisconsin	1172	1	<?xml version="1.0"?>\n<Clock xmlns:dt="urn:schemas-microsoft-com:datatypes"><Description dt:dt="string">E-Prime Primary Realtime Clock</Description><StartTime><Timestamp dt:dt="int">0</Timestamp><DateUtc dt:dt="string">2022-12-03T03:11:18Z</DateUtc></StartTime><FrequencyChanges><FrequencyChange><Frequency dt:dt="r8">10000000</Frequency><Timestamp dt:dt="r8">7541646162286</Timestamp><Current dt:dt="r8">0</Current><DateUtc dt:dt="string">2022-12-03T03:11:18Z</DateUtc></FrequencyChange></FrequencyChanges></Clock>\n	Wisconsin-1172-1	60.009	1.0.0.245	1	-313846870	Full	3.0.3.80	3.0.3.80	12-03-2022	12/3/2022 3:11:19 AM	11:11:19	Keyboard	Keyboard	Keyboard	3.0.3.82	Keyboard	3					1	1	2		BlockProc	List2	2								3	1	2							NumberProc	List3											10	Button1.png	Button2.png	Button3.png	Button4.png	Bluetriangle1.png							{Button4}	0	3	1	10				0	TrialProc	NumberList							1	{Button4}	Button	10	33	322115	0	{Button4}	1405	323520	number
Wisconsin	1172	1	<?xml version="1.0"?>\n<Clock xmlns:dt="urn:schemas-microsoft-com:datatypes"><Description dt:dt="string">E-Prime Primary Realtime Clock</Description><StartTime><Timestamp dt:dt="int">0</Timestamp><DateUtc dt:dt="string">2022-12-03T03:11:18Z</DateUtc></StartTime><FrequencyChanges><FrequencyChange><Frequency dt:dt="r8">10000000</Frequency><Timestamp dt:dt="r8">7541646162286</Timestamp><Current dt:dt="r8">0</Current><DateUtc dt:dt="string">2022-12-03T03:11:18Z</DateUtc></FrequencyChange></FrequencyChanges></Clock>\n	Wisconsin-1172-1	60.009	1.0.0.245	1	-313846870	Full	3.0.3.80	3.0.3.80	12-03-2022	12/3/2022 3:11:19 AM	11:11:19	Keyboard	Keyboard	Keyboard	3.0.3.82	Keyboard	3					1	1	2		BlockProc	List2	3								2	1	3							ShapeProc	List3											1	Button1.png	Button2.png	Button3.png	Button4.png	Yellowstar1.png							{Button4}	0							0	TrialProc	ShapeList	9	1	1				1	{Button4}	Button	10	33	326097	0	{Button4}	1215	327312	Shape
Wisconsin	1172	1	<?xml version="1.0"?>\n<Clock xmlns:dt="urn:schemas-microsoft-com:datatypes"><Description dt:dt="string">E-Prime Primary Realtime Clock</Description><StartTime><Timestamp dt:dt="int">0</Timestamp><DateUtc dt:dt="string">2022-12-03T03:11:18Z</DateUtc></StartTime><FrequencyChanges><FrequencyChange><Frequency dt:dt="r8">10000000</Frequency><Timestamp dt:dt="r8">7541646162286</Timestamp><Current dt:dt="r8">0</Current><DateUtc dt:dt="string">2022-12-03T03:11:18Z</DateUtc></FrequencyChange></FrequencyChanges></Clock>\n	Wisconsin-1172-1	60.009	1.0.0.245	1	-313846870	Full	3.0.3.80	3.0.3.80	12-03-2022	12/3/2022 3:11:19 AM	11:11:19	Keyboard	Keyboard	Keyboard	3.0.3.82	Keyboard	3					1	1	2		BlockProc	List2	3								2	1	3							ShapeProc	List3											2	Button1.png	Button2.png	Button3.png	Button4.png	yellowcircle3.png							{Button1}	0							0	TrialProc	ShapeList	8	1	2				0	{Button1}	Button	10	33	329896	0	{Button3}	1184	331080	Shape
Wisconsin	1172	1	<?xml version="1.0"?>\n<Clock xmlns:dt="urn:schemas-microsoft-com:datatypes"><Description dt:dt="string">E-Prime Primary Realtime Clock</Description><StartTime><Timestamp dt:dt="int">0</Timestamp><DateUtc dt:dt="string">2022-12-03T03:11:18Z</DateUtc></StartTime><FrequencyChanges><FrequencyChange><Frequency dt:dt="r8">10000000</Frequency><Timestamp dt:dt="r8">7541646162286</Timestamp><Current dt:dt="r8">0</Current><DateUtc dt:dt="string">2022-12-03T03:11:18Z</DateUtc></FrequencyChange></FrequencyChanges></Clock>\n	Wisconsin-1172-1	60.009	1.0.0.245	1	-313846870	Full	3.0.3.80	3.0.3.80	12-03-2022	12/3/2022 3:11:19 AM	11:11:19	Keyboard	Keyboard	Keyboard	3.0.3.82	Keyboard	3					1	1	2		BlockProc	List2	3								2	1	3							ShapeProc	List3											3	Button1.png	Button2.png	Button3.png	Button4.png	Bluecircle2.png							{Button1}	0							0	TrialProc	ShapeList	1	1	3				1	{Button1}	Button	2	33	333662	0	{Button1}	1178	334840	Shape
Wisconsin	1172	1	<?xml version="1.0"?>\n<Clock xmlns:dt="urn:schemas-microsoft-com:datatypes"><Description dt:dt="string">E-Prime Primary Realtime Clock</Description><StartTime><Timestamp dt:dt="int">0</Timestamp><DateUtc dt:dt="string">2022-12-03T03:11:18Z</DateUtc></StartTime><FrequencyChanges><FrequencyChange><Frequency dt:dt="r8">10000000</Frequency><Timestamp dt:dt="r8">7541646162286</Timestamp><Current dt:dt="r8">0</Current><DateUtc dt:dt="string">2022-12-03T03:11:18Z</DateUtc></FrequencyChange></FrequencyChanges></Clock>\n	Wisconsin-1172-1	60.009	1.0.0.245	1	-313846870	Full	3.0.3.80	3.0.3.80	12-03-2022	12/3/2022 3:11:19 AM	11:11:19	Keyboard	Keyboard	Keyboard	3.0.3.82	Keyboard	3					1	1	2		BlockProc	List2	3								2	1	3							ShapeProc	List3											4	Button1.png	Button2.png	Button3.png	Button4.png	Redcross1.png							{Button3}	0							0	TrialProc	ShapeList	5	1	4				0	{Button3}	Button	9	33	337411	0	{Button4}	1309	338720	Shape
Wisconsin	1172	1	<?xml version="1.0"?>\n<Clock xmlns:dt="urn:schemas-microsoft-com:datatypes"><Description dt:dt="string">E-Prime Primary Realtime Clock</Description><StartTime><Timestamp dt:dt="int">0</Timestamp><DateUtc dt:dt="string">2022-12-03T03:11:18Z</DateUtc></StartTime><FrequencyChanges><FrequencyChange><Frequency dt:dt="r8">10000000</Frequency><Timestamp dt:dt="r8">7541646162286</Timestamp><Current dt:dt="r8">0</Current><DateUtc dt:dt="string">2022-12-03T03:11:18Z</DateUtc></FrequencyChange></FrequencyChanges></Clock>\n	Wisconsin-1172-1	60.009	1.0.0.245	1	-313846870	Full	3.0.3.80	3.0.3.80	12-03-2022	12/3/2022 3:11:19 AM	11:11:19	Keyboard	Keyboard	Keyboard	3.0.3.82	Keyboard	3					1	1	2		BlockProc	List2	3								2	1	3							ShapeProc	List3											5	Button1.png	Button2.png	Button3.png	Button4.png	Greentriangle4.png							{Button2}	0							0	TrialProc	ShapeList	4	1	5				1	{Button2}	Button	10	49	341310	0	{Button2}	1418	342728	Shape
Wisconsin	1172	1	<?xml version="1.0"?>\n<Clock xmlns:dt="urn:schemas-microsoft-com:datatypes"><Description dt:dt="string">E-Prime Primary Realtime Clock</Description><StartTime><Timestamp dt:dt="int">0</Timestamp><DateUtc dt:dt="string">2022-12-03T03:11:18Z</DateUtc></StartTime><FrequencyChanges><FrequencyChange><Frequency dt:dt="r8">10000000</Frequency><Timestamp dt:dt="r8">7541646162286</Timestamp><Current dt:dt="r8">0</Current><DateUtc dt:dt="string">2022-12-03T03:11:18Z</DateUtc></FrequencyChange></FrequencyChanges></Clock>\n	Wisconsin-1172-1	60.009	1.0.0.245	1	-313846870	Full	3.0.3.80	3.0.3.80	12-03-2022	12/3/2022 3:11:19 AM	11:11:19	Keyboard	Keyboard	Keyboard	3.0.3.82	Keyboard	3					1	1	2		BlockProc	List2	3								2	1	3							ShapeProc	List3											6	Button1.png	Button2.png	Button3.png	Button4.png	Greencross1.png							{Button3}	0							0	TrialProc	ShapeList	3	1	6				0	{Button3}	Button	10	33	345309	0	{Button4}	1499	346808	Shape
Wisconsin	1172	1	<?xml version="1.0"?>\n<Clock xmlns:dt="urn:schemas-microsoft-com:datatypes"><Description dt:dt="string">E-Prime Primary Realtime Clock</Description><StartTime><Timestamp dt:dt="int">0</Timestamp><DateUtc dt:dt="string">2022-12-03T03:11:18Z</DateUtc></StartTime><FrequencyChanges><FrequencyChange><Frequency dt:dt="r8">10000000</Frequency><Timestamp dt:dt="r8">7541646162286</Timestamp><Current dt:dt="r8">0</Current><DateUtc dt:dt="string">2022-12-03T03:11:18Z</DateUtc></FrequencyChange></FrequencyChanges></Clock>\n	Wisconsin-1172-1	60.009	1.0.0.245	1	-313846870	Full	3.0.3.80	3.0.3.80	12-03-2022	12/3/2022 3:11:19 AM	11:11:19	Keyboard	Keyboard	Keyboard	3.0.3.82	Keyboard	3					1	1	2		BlockProc	List2	3								2	1	3							ShapeProc	List3											7	Button1.png	Button2.png	Button3.png	Button4.png	Yellowstar4.png							{Button4}	0							0	TrialProc	ShapeList	10	1	7				0	{Button4}	Button	1	33	349392	0	{Button2}	1488	350880	Shape
Wisconsin	1172	1	<?xml version="1.0"?>\n<Clock xmlns:dt="urn:schemas-microsoft-com:datatypes"><Description dt:dt="string">E-Prime Primary Realtime Clock</Description><StartTime><Timestamp dt:dt="int">0</Timestamp><DateUtc dt:dt="string">2022-12-03T03:11:18Z</DateUtc></StartTime><FrequencyChanges><FrequencyChange><Frequency dt:dt="r8">10000000</Frequency><Timestamp dt:dt="r8">7541646162286</Timestamp><Current dt:dt="r8">0</Current><DateUtc dt:dt="string">2022-12-03T03:11:18Z</DateUtc></FrequencyChange></FrequencyChanges></Clock>\n	Wisconsin-1172-1	60.009	1.0.0.245	1	-313846870	Full	3.0.3.80	3.0.3.80	12-03-2022	12/3/2022 3:11:19 AM	11:11:19	Keyboard	Keyboard	Keyboard	3.0.3.82	Keyboard	3					1	1	2		BlockProc	List2	3								2	1	3							ShapeProc	List3											8	Button1.png	Button2.png	Button3.png	Button4.png	Redtriangle1.png							{Button2}	0							0	TrialProc	ShapeList	7	1	8				1	{Button2}	Button	10	33	353457	0	{Button2}	1071	354528	Shape
Wisconsin	1172	1	<?xml version="1.0"?>\n<Clock xmlns:dt="urn:schemas-microsoft-com:datatypes"><Description dt:dt="string">E-Prime Primary Realtime Clock</Description><StartTime><Timestamp dt:dt="int">0</Timestamp><DateUtc dt:dt="string">2022-12-03T03:11:18Z</DateUtc></StartTime><FrequencyChanges><FrequencyChange><Frequency dt:dt="r8">10000000</Frequency><Timestamp dt:dt="r8">7541646162286</Timestamp><Current dt:dt="r8">0</Current><DateUtc dt:dt="string">2022-12-03T03:11:18Z</DateUtc></FrequencyChange></FrequencyChanges></Clock>\n	Wisconsin-1172-1	60.009	1.0.0.245	1	-313846870	Full	3.0.3.80	3.0.3.80	12-03-2022	12/3/2022 3:11:19 AM	11:11:19	Keyboard	Keyboard	Keyboard	3.0.3.82	Keyboard	3					1	1	2		BlockProc	List2	3								2	1	3							ShapeProc	List3											9	Button1.png	Button2.png	Button3.png	Button4.png	Bluecross4.png							{Button3}	0							0	TrialProc	ShapeList	2	1	9				1	{Button3}	Button	11	50	357123	0	{Button3}	1045	358168	Shape
Wisconsin	1172	1	<?xml version="1.0"?>\n<Clock xmlns:dt="urn:schemas-microsoft-com:datatypes"><Description dt:dt="string">E-Prime Primary Realtime Clock</Description><StartTime><Timestamp dt:dt="int">0</Timestamp><DateUtc dt:dt="string">2022-12-03T03:11:18Z</DateUtc></StartTime><FrequencyChanges><FrequencyChange><Frequency dt:dt="r8">10000000</Frequency><Timestamp dt:dt="r8">7541646162286</Timestamp><Current dt:dt="r8">0</Current><DateUtc dt:dt="string">2022-12-03T03:11:18Z</DateUtc></FrequencyChange></FrequencyChanges></Clock>\n	Wisconsin-1172-1	60.009	1.0.0.245	1	-313846870	Full	3.0.3.80	3.0.3.80	12-03-2022	12/3/2022 3:11:19 AM	11:11:19	Keyboard	Keyboard	Keyboard	3.0.3.82	Keyboard	3					1	1	2		BlockProc	List2	3								2	1	3							ShapeProc	List3											10	Button1.png	Button2.png	Button3.png	Button4.png	Redcross4.png							{Button3}	0							0	TrialProc	ShapeList	6	1	10				0	{Button3}	Button	10	33	360739	0	{Button2}	1141	361880	Shape
