ExperimentName	Subject	Session	Clock.Information	DataFile.Basename	Display.RefreshRate	ExperimentVersion	Group	RandomSeed	RuntimeCapabilities	RuntimeVersion	RuntimeVersionExpected	SessionDate	SessionStartDateTimeUtc	SessionTime	Slide1.DEVICE	Slide2.DEVICE	Slide3.DEVICE	StudioVersion	Welcome.DEVICE	Block	GetReady.DEVICE	List1	List1.Cycle	List1.Sample	List2	List2.Cycle	List2.Sample	PracticeReady.DEVICE	Procedure[Block]	Running[Block]	Trial	CardIMG1[Trial]	CardIMG2[Trial]	CardIMG3[Trial]	CardIMG4[Trial]	CardStim[Trial]	Category	CorrectAnswer[Trial]	List3	List3.Cycle	List3.Sample	List4	List4.Cycle	List4.Sample	PracticeList	PracticeList.Cycle	PracticeList.Sample	Procedure[Trial]	Running[Trial]	Slide4.ACC	Slide4.CRESP	Slide4.DEVICE	Slide4.DurationError	Slide4.OnsetDelay	Slide4.OnsetTime	Slide4.OnsetToOnsetTime	Slide4.RESP	Slide4.RT	Slide4.RTTime	SubTrial	CardIMG1[SubTrial]	CardIMG2[SubTrial]	CardIMG3[SubTrial]	CardIMG4[SubTrial]	CardStim[SubTrial]	ColorList	ColorList.Cycle	ColorList.Sample	ColorList2	ColorList2.Cycle	ColorList2.Sample	CorrectAnswer[SubTrial]	NonPerseverativeError	NumberList	NumberList.Cycle	NumberList.Sample	NumberList2	NumberList2.Cycle	NumberList2.Sample	PerseverativeError	Procedure[SubTrial]	Running[SubTrial]	ShapeList	ShapeList.Cycle	ShapeList.Sample	ShapeList2	ShapeList2.Cycle	ShapeList2.Sample	Slide5.ACC	Slide5.CRESP	Slide5.DEVICE	Slide5.DurationError	Slide5.OnsetDelay	Slide5.OnsetTime	Slide5.OnsetToOnsetTime	Slide5.RESP	Slide5.RT	Slide5.RTTime	TrialType
Wisconsin	1172	3	<?xml version="1.0"?>\n<Clock xmlns:dt="urn:schemas-microsoft-com:datatypes"><Description dt:dt="string">E-Prime Primary Realtime Clock</Description><StartTime><Timestamp dt:dt="int">0</Timestamp><DateUtc dt:dt="string">2023-01-13T09:34:09Z</DateUtc></StartTime><FrequencyChanges><FrequencyChange><Frequency dt:dt="r8">10000000</Frequency><Timestamp dt:dt="r8">23457159188256</Timestamp><Current dt:dt="r8">0</Current><DateUtc dt:dt="string">2023-01-13T09:34:09Z</DateUtc></FrequencyChange></FrequencyChanges></Clock>\n	Wisconsin-1172-3	60.014	1.0.0.255	1	-1949571063	Full	3.0.3.80	3.0.3.80	01-13-2023	1/13/2023 9:34:10 AM	17:34:10	Keyboard	Keyboard	Keyboard	3.0.3.82	Keyboard	1	Keyboard	1	1	1				Keyboard	Practiceploc	List1	1	Button1.png	Button2.png	Button3.png	Button4.png	Greencircle3.png	顏色	{button1}							1	1	1	PracticeTrialProc	PracticeList	1	{button1}	Button	2	49	59601	0	{Button1}	3595	63196																																								
Wisconsin	1172	3	<?xml version="1.0"?>\n<Clock xmlns:dt="urn:schemas-microsoft-com:datatypes"><Description dt:dt="string">E-Prime Primary Realtime Clock</Description><StartTime><Timestamp dt:dt="int">0</Timestamp><DateUtc dt:dt="string">2023-01-13T09:34:09Z</DateUtc></StartTime><FrequencyChanges><FrequencyChange><Frequency dt:dt="r8">10000000</Frequency><Timestamp dt:dt="r8">23457159188256</Timestamp><Current dt:dt="r8">0</Current><DateUtc dt:dt="string">2023-01-13T09:34:09Z</DateUtc></FrequencyChange></FrequencyChanges></Clock>\n	Wisconsin-1172-3	60.014	1.0.0.255	1	-1949571063	Full	3.0.3.80	3.0.3.80	01-13-2023	1/13/2023 9:34:10 AM	17:34:10	Keyboard	Keyboard	Keyboard	3.0.3.82	Keyboard	1	Keyboard	1	1	1				Keyboard	Practiceploc	List1	2	Button1.png	Button2.png	Button3.png	Button4.png	Redstar2.png	顏色	{button3}							2	1	2	PracticeTrialProc	PracticeList	1	{button3}	Button	1	34	65817	0	{Button3}	1539	67356																																								
Wisconsin	1172	3	<?xml version="1.0"?>\n<Clock xmlns:dt="urn:schemas-microsoft-com:datatypes"><Description dt:dt="string">E-Prime Primary Realtime Clock</Description><StartTime><Timestamp dt:dt="int">0</Timestamp><DateUtc dt:dt="string">2023-01-13T09:34:09Z</DateUtc></StartTime><FrequencyChanges><FrequencyChange><Frequency dt:dt="r8">10000000</Frequency><Timestamp dt:dt="r8">23457159188256</Timestamp><Current dt:dt="r8">0</Current><DateUtc dt:dt="string">2023-01-13T09:34:09Z</DateUtc></FrequencyChange></FrequencyChanges></Clock>\n	Wisconsin-1172-3	60.014	1.0.0.255	1	-1949571063	Full	3.0.3.80	3.0.3.80	01-13-2023	1/13/2023 9:34:10 AM	17:34:10	Keyboard	Keyboard	Keyboard	3.0.3.82	Keyboard	1	Keyboard	1	1	1				Keyboard	Practiceploc	List1	3	Button1.png	Button2.png	Button3.png	Button4.png	Bluetriangle1.png	形狀	{button2}							3	1	3	PracticeTrialProc	PracticeList	1	{button2}	Button	15	50	69949	0	{Button2}	1631	71580																																								
Wisconsin	1172	3	<?xml version="1.0"?>\n<Clock xmlns:dt="urn:schemas-microsoft-com:datatypes"><Description dt:dt="string">E-Prime Primary Realtime Clock</Description><StartTime><Timestamp dt:dt="int">0</Timestamp><DateUtc dt:dt="string">2023-01-13T09:34:09Z</DateUtc></StartTime><FrequencyChanges><FrequencyChange><Frequency dt:dt="r8">10000000</Frequency><Timestamp dt:dt="r8">23457159188256</Timestamp><Current dt:dt="r8">0</Current><DateUtc dt:dt="string">2023-01-13T09:34:09Z</DateUtc></FrequencyChange></FrequencyChanges></Clock>\n	Wisconsin-1172-3	60.014	1.0.0.255	1	-1949571063	Full	3.0.3.80	3.0.3.80	01-13-2023	1/13/2023 9:34:10 AM	17:34:10	Keyboard	Keyboard	Keyboard	3.0.3.82	Keyboard	1	Keyboard	1	1	1				Keyboard	Practiceploc	List1	4	Button1.png	Button2.png	Button3.png	Button4.png	greenstar2.png	形狀	{Button4}							4	1	4	PracticeTrialProc	PracticeList	1	{Button4}	Button	18	67	74198	0	{Button4}	2054	76252																																								
Wisconsin	1172	3	<?xml version="1.0"?>\n<Clock xmlns:dt="urn:schemas-microsoft-com:datatypes"><Description dt:dt="string">E-Prime Primary Realtime Clock</Description><StartTime><Timestamp dt:dt="int">0</Timestamp><DateUtc dt:dt="string">2023-01-13T09:34:09Z</DateUtc></StartTime><FrequencyChanges><FrequencyChange><Frequency dt:dt="r8">10000000</Frequency><Timestamp dt:dt="r8">23457159188256</Timestamp><Current dt:dt="r8">0</Current><DateUtc dt:dt="string">2023-01-13T09:34:09Z</DateUtc></FrequencyChange></FrequencyChanges></Clock>\n	Wisconsin-1172-3	60.014	1.0.0.255	1	-1949571063	Full	3.0.3.80	3.0.3.80	01-13-2023	1/13/2023 9:34:10 AM	17:34:10	Keyboard	Keyboard	Keyboard	3.0.3.82	Keyboard	1	Keyboard	1	1	1				Keyboard	Practiceploc	List1	5	Button1.png	Button2.png	Button3.png	Button4.png	BlueCross4.png	圖案數目	{Button2}							5	1	5	PracticeTrialProc	PracticeList	1	{Button2}	Button	15	49	78863	0	{Button2}	1565	80428																																								
Wisconsin	1172	3	<?xml version="1.0"?>\n<Clock xmlns:dt="urn:schemas-microsoft-com:datatypes"><Description dt:dt="string">E-Prime Primary Realtime Clock</Description><StartTime><Timestamp dt:dt="int">0</Timestamp><DateUtc dt:dt="string">2023-01-13T09:34:09Z</DateUtc></StartTime><FrequencyChanges><FrequencyChange><Frequency dt:dt="r8">10000000</Frequency><Timestamp dt:dt="r8">23457159188256</Timestamp><Current dt:dt="r8">0</Current><DateUtc dt:dt="string">2023-01-13T09:34:09Z</DateUtc></FrequencyChange></FrequencyChanges></Clock>\n	Wisconsin-1172-3	60.014	1.0.0.255	1	-1949571063	Full	3.0.3.80	3.0.3.80	01-13-2023	1/13/2023 9:34:10 AM	17:34:10	Keyboard	Keyboard	Keyboard	3.0.3.82	Keyboard	1	Keyboard	1	1	1				Keyboard	Practiceploc	List1	6	Button1.png	Button2.png	Button3.png	Button4.png	yellowcircle2.png	圖案數目	{Button1}							6	1	6	PracticeTrialProc	PracticeList	1	{Button1}	Button	2	33	83012	0	{Button1}	1873	84885																																								
Wisconsin	1172	3	<?xml version="1.0"?>\n<Clock xmlns:dt="urn:schemas-microsoft-com:datatypes"><Description dt:dt="string">E-Prime Primary Realtime Clock</Description><StartTime><Timestamp dt:dt="int">0</Timestamp><DateUtc dt:dt="string">2023-01-13T09:34:09Z</DateUtc></StartTime><FrequencyChanges><FrequencyChange><Frequency dt:dt="r8">10000000</Frequency><Timestamp dt:dt="r8">23457159188256</Timestamp><Current dt:dt="r8">0</Current><DateUtc dt:dt="string">2023-01-13T09:34:09Z</DateUtc></FrequencyChange></FrequencyChanges></Clock>\n	Wisconsin-1172-3	60.014	1.0.0.255	1	-1949571063	Full	3.0.3.80	3.0.3.80	01-13-2023	1/13/2023 9:34:10 AM	17:34:10	Keyboard	Keyboard	Keyboard	3.0.3.82	Keyboard	2					2	1	1		BlockProc2	List2	1											1	1	1				ColorProc2	List4											1	BUTTON1.png	BUTTON2.PNG	BUTTON3.png	BUTTON4.png	yellowtriangle3.png				10	1	1	{Button2}	0							0	TrialProc	ColorList2							1	{Button2}	Button	2	33	103141	0	{Button2}	1383	104524	color
Wisconsin	1172	3	<?xml version="1.0"?>\n<Clock xmlns:dt="urn:schemas-microsoft-com:datatypes"><Description dt:dt="string">E-Prime Primary Realtime Clock</Description><StartTime><Timestamp dt:dt="int">0</Timestamp><DateUtc dt:dt="string">2023-01-13T09:34:09Z</DateUtc></StartTime><FrequencyChanges><FrequencyChange><Frequency dt:dt="r8">10000000</Frequency><Timestamp dt:dt="r8">23457159188256</Timestamp><Current dt:dt="r8">0</Current><DateUtc dt:dt="string">2023-01-13T09:34:09Z</DateUtc></FrequencyChange></FrequencyChanges></Clock>\n	Wisconsin-1172-3	60.014	1.0.0.255	1	-1949571063	Full	3.0.3.80	3.0.3.80	01-13-2023	1/13/2023 9:34:10 AM	17:34:10	Keyboard	Keyboard	Keyboard	3.0.3.82	Keyboard	2					2	1	1		BlockProc2	List2	1											1	1	1				ColorProc2	List4											2	BUTTON1.png	BUTTON2.PNG	BUTTON3.png	BUTTON4.png	Greencircle1.png				3	1	2	{Button1}	0							0	TrialProc	ColorList2							1	{Button1}	Button	11	50	107123	0	{Button1}	1185	108308	color
Wisconsin	1172	3	<?xml version="1.0"?>\n<Clock xmlns:dt="urn:schemas-microsoft-com:datatypes"><Description dt:dt="string">E-Prime Primary Realtime Clock</Description><StartTime><Timestamp dt:dt="int">0</Timestamp><DateUtc dt:dt="string">2023-01-13T09:34:09Z</DateUtc></StartTime><FrequencyChanges><FrequencyChange><Frequency dt:dt="r8">10000000</Frequency><Timestamp dt:dt="r8">23457159188256</Timestamp><Current dt:dt="r8">0</Current><DateUtc dt:dt="string">2023-01-13T09:34:09Z</DateUtc></FrequencyChange></FrequencyChanges></Clock>\n	Wisconsin-1172-3	60.014	1.0.0.255	1	-1949571063	Full	3.0.3.80	3.0.3.80	01-13-2023	1/13/2023 9:34:10 AM	17:34:10	Keyboard	Keyboard	Keyboard	3.0.3.82	Keyboard	2					2	1	1		BlockProc2	List2	1											1	1	1				ColorProc2	List4											3	BUTTON1.png	BUTTON2.PNG	BUTTON3.png	BUTTON4.png	greenstar4.png				5	1	3	{Button1}	0							0	TrialProc	ColorList2							1	{Button1}	Button	9	50	110906	0	{Button1}	1130	112036	color
Wisconsin	1172	3	<?xml version="1.0"?>\n<Clock xmlns:dt="urn:schemas-microsoft-com:datatypes"><Description dt:dt="string">E-Prime Primary Realtime Clock</Description><StartTime><Timestamp dt:dt="int">0</Timestamp><DateUtc dt:dt="string">2023-01-13T09:34:09Z</DateUtc></StartTime><FrequencyChanges><FrequencyChange><Frequency dt:dt="r8">10000000</Frequency><Timestamp dt:dt="r8">23457159188256</Timestamp><Current dt:dt="r8">0</Current><DateUtc dt:dt="string">2023-01-13T09:34:09Z</DateUtc></FrequencyChange></FrequencyChanges></Clock>\n	Wisconsin-1172-3	60.014	1.0.0.255	1	-1949571063	Full	3.0.3.80	3.0.3.80	01-13-2023	1/13/2023 9:34:10 AM	17:34:10	Keyboard	Keyboard	Keyboard	3.0.3.82	Keyboard	2					2	1	1		BlockProc2	List2	1											1	1	1				ColorProc2	List4											4	BUTTON1.png	BUTTON2.PNG	BUTTON3.png	BUTTON4.png	Redcircle2.png				7	1	4	{Button3}	0							0	TrialProc	ColorList2							1	{Button3}	Button	9	50	114638	0	{Button3}	1174	115812	color
Wisconsin	1172	3	<?xml version="1.0"?>\n<Clock xmlns:dt="urn:schemas-microsoft-com:datatypes"><Description dt:dt="string">E-Prime Primary Realtime Clock</Description><StartTime><Timestamp dt:dt="int">0</Timestamp><DateUtc dt:dt="string">2023-01-13T09:34:09Z</DateUtc></StartTime><FrequencyChanges><FrequencyChange><Frequency dt:dt="r8">10000000</Frequency><Timestamp dt:dt="r8">23457159188256</Timestamp><Current dt:dt="r8">0</Current><DateUtc dt:dt="string">2023-01-13T09:34:09Z</DateUtc></FrequencyChange></FrequencyChanges></Clock>\n	Wisconsin-1172-3	60.014	1.0.0.255	1	-1949571063	Full	3.0.3.80	3.0.3.80	01-13-2023	1/13/2023 9:34:10 AM	17:34:10	Keyboard	Keyboard	Keyboard	3.0.3.82	Keyboard	2					2	1	1		BlockProc2	List2	1											1	1	1				ColorProc2	List4											5	BUTTON1.png	BUTTON2.PNG	BUTTON3.png	BUTTON4.png	bluecross1.png				1	1	5	{Button4}	0							0	TrialProc	ColorList2							1	{Button4}	Button	10	50	118404	0	{Button4}	1000	119404	color
Wisconsin	1172	3	<?xml version="1.0"?>\n<Clock xmlns:dt="urn:schemas-microsoft-com:datatypes"><Description dt:dt="string">E-Prime Primary Realtime Clock</Description><StartTime><Timestamp dt:dt="int">0</Timestamp><DateUtc dt:dt="string">2023-01-13T09:34:09Z</DateUtc></StartTime><FrequencyChanges><FrequencyChange><Frequency dt:dt="r8">10000000</Frequency><Timestamp dt:dt="r8">23457159188256</Timestamp><Current dt:dt="r8">0</Current><DateUtc dt:dt="string">2023-01-13T09:34:09Z</DateUtc></FrequencyChange></FrequencyChanges></Clock>\n	Wisconsin-1172-3	60.014	1.0.0.255	1	-1949571063	Full	3.0.3.80	3.0.3.80	01-13-2023	1/13/2023 9:34:10 AM	17:34:10	Keyboard	Keyboard	Keyboard	3.0.3.82	Keyboard	2					2	1	1		BlockProc2	List2	1											1	1	1				ColorProc2	List4											6	BUTTON1.png	BUTTON2.PNG	BUTTON3.png	BUTTON4.png	bluestar3.png				2	1	6	{Button4}	0							0	TrialProc	ColorList2							1	{Button4}	Button	13	50	122003	0	{Button4}	1177	123180	color
Wisconsin	1172	3	<?xml version="1.0"?>\n<Clock xmlns:dt="urn:schemas-microsoft-com:datatypes"><Description dt:dt="string">E-Prime Primary Realtime Clock</Description><StartTime><Timestamp dt:dt="int">0</Timestamp><DateUtc dt:dt="string">2023-01-13T09:34:09Z</DateUtc></StartTime><FrequencyChanges><FrequencyChange><Frequency dt:dt="r8">10000000</Frequency><Timestamp dt:dt="r8">23457159188256</Timestamp><Current dt:dt="r8">0</Current><DateUtc dt:dt="string">2023-01-13T09:34:09Z</DateUtc></FrequencyChange></FrequencyChanges></Clock>\n	Wisconsin-1172-3	60.014	1.0.0.255	1	-1949571063	Full	3.0.3.80	3.0.3.80	01-13-2023	1/13/2023 9:34:10 AM	17:34:10	Keyboard	Keyboard	Keyboard	3.0.3.82	Keyboard	2					2	1	1		BlockProc2	List2	1											1	1	1				ColorProc2	List4											7	BUTTON1.png	BUTTON2.PNG	BUTTON3.png	BUTTON4.png	greentriangle2.png				6	1	7	{Button1}	0							0	TrialProc	ColorList2							1	{Button1}	Button	9	33	125752	0	{Button1}	1276	127028	color
Wisconsin	1172	3	<?xml version="1.0"?>\n<Clock xmlns:dt="urn:schemas-microsoft-com:datatypes"><Description dt:dt="string">E-Prime Primary Realtime Clock</Description><StartTime><Timestamp dt:dt="int">0</Timestamp><DateUtc dt:dt="string">2023-01-13T09:34:09Z</DateUtc></StartTime><FrequencyChanges><FrequencyChange><Frequency dt:dt="r8">10000000</Frequency><Timestamp dt:dt="r8">23457159188256</Timestamp><Current dt:dt="r8">0</Current><DateUtc dt:dt="string">2023-01-13T09:34:09Z</DateUtc></FrequencyChange></FrequencyChanges></Clock>\n	Wisconsin-1172-3	60.014	1.0.0.255	1	-1949571063	Full	3.0.3.80	3.0.3.80	01-13-2023	1/13/2023 9:34:10 AM	17:34:10	Keyboard	Keyboard	Keyboard	3.0.3.82	Keyboard	2					2	1	1		BlockProc2	List2	1											1	1	1				ColorProc2	List4											8	BUTTON1.png	BUTTON2.PNG	BUTTON3.png	BUTTON4.png	greencross4.png				4	1	8	{Button1}	0							0	TrialProc	ColorList2							1	{Button1}	Button	1	33	129601	0	{Button1}	2019	131620	color
Wisconsin	1172	3	<?xml version="1.0"?>\n<Clock xmlns:dt="urn:schemas-microsoft-com:datatypes"><Description dt:dt="string">E-Prime Primary Realtime Clock</Description><StartTime><Timestamp dt:dt="int">0</Timestamp><DateUtc dt:dt="string">2023-01-13T09:34:09Z</DateUtc></StartTime><FrequencyChanges><FrequencyChange><Frequency dt:dt="r8">10000000</Frequency><Timestamp dt:dt="r8">23457159188256</Timestamp><Current dt:dt="r8">0</Current><DateUtc dt:dt="string">2023-01-13T09:34:09Z</DateUtc></FrequencyChange></FrequencyChanges></Clock>\n	Wisconsin-1172-3	60.014	1.0.0.255	1	-1949571063	Full	3.0.3.80	3.0.3.80	01-13-2023	1/13/2023 9:34:10 AM	17:34:10	Keyboard	Keyboard	Keyboard	3.0.3.82	Keyboard	2					2	1	1		BlockProc2	List2	1											1	1	1				ColorProc2	List4											9	BUTTON1.png	BUTTON2.PNG	BUTTON3.png	BUTTON4.png	yellowcircle2.png				9	1	9	{Button2}	0							0	TrialProc	ColorList2							1	{Button2}	Button	9	33	134200	0	{Button2}	1052	135252	color
Wisconsin	1172	3	<?xml version="1.0"?>\n<Clock xmlns:dt="urn:schemas-microsoft-com:datatypes"><Description dt:dt="string">E-Prime Primary Realtime Clock</Description><StartTime><Timestamp dt:dt="int">0</Timestamp><DateUtc dt:dt="string">2023-01-13T09:34:09Z</DateUtc></StartTime><FrequencyChanges><FrequencyChange><Frequency dt:dt="r8">10000000</Frequency><Timestamp dt:dt="r8">23457159188256</Timestamp><Current dt:dt="r8">0</Current><DateUtc dt:dt="string">2023-01-13T09:34:09Z</DateUtc></FrequencyChange></FrequencyChanges></Clock>\n	Wisconsin-1172-3	60.014	1.0.0.255	1	-1949571063	Full	3.0.3.80	3.0.3.80	01-13-2023	1/13/2023 9:34:10 AM	17:34:10	Keyboard	Keyboard	Keyboard	3.0.3.82	Keyboard	2					2	1	1		BlockProc2	List2	1											1	1	1				ColorProc2	List4											10	BUTTON1.png	BUTTON2.PNG	BUTTON3.png	BUTTON4.png	redstar4.png				8	1	10	{Button3}	0							0	TrialProc	ColorList2							0	{Button3}	Button	9	33	137832	0	{Button2}	1436	139268	color
Wisconsin	1172	3	<?xml version="1.0"?>\n<Clock xmlns:dt="urn:schemas-microsoft-com:datatypes"><Description dt:dt="string">E-Prime Primary Realtime Clock</Description><StartTime><Timestamp dt:dt="int">0</Timestamp><DateUtc dt:dt="string">2023-01-13T09:34:09Z</DateUtc></StartTime><FrequencyChanges><FrequencyChange><Frequency dt:dt="r8">10000000</Frequency><Timestamp dt:dt="r8">23457159188256</Timestamp><Current dt:dt="r8">0</Current><DateUtc dt:dt="string">2023-01-13T09:34:09Z</DateUtc></FrequencyChange></FrequencyChanges></Clock>\n	Wisconsin-1172-3	60.014	1.0.0.255	1	-1949571063	Full	3.0.3.80	3.0.3.80	01-13-2023	1/13/2023 9:34:10 AM	17:34:10	Keyboard	Keyboard	Keyboard	3.0.3.82	Keyboard	2					2	1	1		BlockProc2	List2	2											3	1	2				NumberProc2	List4											1	Button1.png	Button2.png	Button3.png	Button4.png	Bluecross3.png							{button3}	0				1	1	1	0	TrialProc	NumberList2							0	{button3}	Button	2	50	141865	0	{Button4}	1003	142868	number
Wisconsin	1172	3	<?xml version="1.0"?>\n<Clock xmlns:dt="urn:schemas-microsoft-com:datatypes"><Description dt:dt="string">E-Prime Primary Realtime Clock</Description><StartTime><Timestamp dt:dt="int">0</Timestamp><DateUtc dt:dt="string">2023-01-13T09:34:09Z</DateUtc></StartTime><FrequencyChanges><FrequencyChange><Frequency dt:dt="r8">10000000</Frequency><Timestamp dt:dt="r8">23457159188256</Timestamp><Current dt:dt="r8">0</Current><DateUtc dt:dt="string">2023-01-13T09:34:09Z</DateUtc></FrequencyChange></FrequencyChanges></Clock>\n	Wisconsin-1172-3	60.014	1.0.0.255	1	-1949571063	Full	3.0.3.80	3.0.3.80	01-13-2023	1/13/2023 9:34:10 AM	17:34:10	Keyboard	Keyboard	Keyboard	3.0.3.82	Keyboard	2					2	1	1		BlockProc2	List2	2											3	1	2				NumberProc2	List4											2	Button1.png	Button2.png	Button3.png	Button4.png	Bluestar4.png							{button2}	0				2	1	2	0	TrialProc	NumberList2							1	{button2}	Button	16	66	145480	0	{Button2}	1756	147236	number
Wisconsin	1172	3	<?xml version="1.0"?>\n<Clock xmlns:dt="urn:schemas-microsoft-com:datatypes"><Description dt:dt="string">E-Prime Primary Realtime Clock</Description><StartTime><Timestamp dt:dt="int">0</Timestamp><DateUtc dt:dt="string">2023-01-13T09:34:09Z</DateUtc></StartTime><FrequencyChanges><FrequencyChange><Frequency dt:dt="r8">10000000</Frequency><Timestamp dt:dt="r8">23457159188256</Timestamp><Current dt:dt="r8">0</Current><DateUtc dt:dt="string">2023-01-13T09:34:09Z</DateUtc></FrequencyChange></FrequencyChanges></Clock>\n	Wisconsin-1172-3	60.014	1.0.0.255	1	-1949571063	Full	3.0.3.80	3.0.3.80	01-13-2023	1/13/2023 9:34:10 AM	17:34:10	Keyboard	Keyboard	Keyboard	3.0.3.82	Keyboard	2					2	1	1		BlockProc2	List2	2											3	1	2				NumberProc2	List4											3	Button1.png	Button2.png	Button3.png	Button4.png	Bluetriangle4.png							{button2}	0				3	1	3	0	TrialProc	NumberList2							1	{button2}	Button	13	49	149829	0	{Button2}	1287	151116	number
Wisconsin	1172	3	<?xml version="1.0"?>\n<Clock xmlns:dt="urn:schemas-microsoft-com:datatypes"><Description dt:dt="string">E-Prime Primary Realtime Clock</Description><StartTime><Timestamp dt:dt="int">0</Timestamp><DateUtc dt:dt="string">2023-01-13T09:34:09Z</DateUtc></StartTime><FrequencyChanges><FrequencyChange><Frequency dt:dt="r8">10000000</Frequency><Timestamp dt:dt="r8">23457159188256</Timestamp><Current dt:dt="r8">0</Current><DateUtc dt:dt="string">2023-01-13T09:34:09Z</DateUtc></FrequencyChange></FrequencyChanges></Clock>\n	Wisconsin-1172-3	60.014	1.0.0.255	1	-1949571063	Full	3.0.3.80	3.0.3.80	01-13-2023	1/13/2023 9:34:10 AM	17:34:10	Keyboard	Keyboard	Keyboard	3.0.3.82	Keyboard	2					2	1	1		BlockProc2	List2	2											3	1	2				NumberProc2	List4											4	Button1.png	Button2.png	Button3.png	Button4.png	Greencross2.png							{button1}	0				4	1	4	0	TrialProc	NumberList2							1	{button1}	Button	11	33	153695	0	{Button1}	1797	155492	number
Wisconsin	1172	3	<?xml version="1.0"?>\n<Clock xmlns:dt="urn:schemas-microsoft-com:datatypes"><Description dt:dt="string">E-Prime Primary Realtime Clock</Description><StartTime><Timestamp dt:dt="int">0</Timestamp><DateUtc dt:dt="string">2023-01-13T09:34:09Z</DateUtc></StartTime><FrequencyChanges><FrequencyChange><Frequency dt:dt="r8">10000000</Frequency><Timestamp dt:dt="r8">23457159188256</Timestamp><Current dt:dt="r8">0</Current><DateUtc dt:dt="string">2023-01-13T09:34:09Z</DateUtc></FrequencyChange></FrequencyChanges></Clock>\n	Wisconsin-1172-3	60.014	1.0.0.255	1	-1949571063	Full	3.0.3.80	3.0.3.80	01-13-2023	1/13/2023 9:34:10 AM	17:34:10	Keyboard	Keyboard	Keyboard	3.0.3.82	Keyboard	2					2	1	1		BlockProc2	List2	2											3	1	2				NumberProc2	List4											5	Button1.png	Button2.png	Button3.png	Button4.png	Greenstar1.png							{button4}	0				5	1	5	0	TrialProc	NumberList2							1	{button4}	Button	10	33	158077	0	{Button4}	1303	159380	number
Wisconsin	1172	3	<?xml version="1.0"?>\n<Clock xmlns:dt="urn:schemas-microsoft-com:datatypes"><Description dt:dt="string">E-Prime Primary Realtime Clock</Description><StartTime><Timestamp dt:dt="int">0</Timestamp><DateUtc dt:dt="string">2023-01-13T09:34:09Z</DateUtc></StartTime><FrequencyChanges><FrequencyChange><Frequency dt:dt="r8">10000000</Frequency><Timestamp dt:dt="r8">23457159188256</Timestamp><Current dt:dt="r8">0</Current><DateUtc dt:dt="string">2023-01-13T09:34:09Z</DateUtc></FrequencyChange></FrequencyChanges></Clock>\n	Wisconsin-1172-3	60.014	1.0.0.255	1	-1949571063	Full	3.0.3.80	3.0.3.80	01-13-2023	1/13/2023 9:34:10 AM	17:34:10	Keyboard	Keyboard	Keyboard	3.0.3.82	Keyboard	2					2	1	1		BlockProc2	List2	2											3	1	2				NumberProc2	List4											6	Button1.png	Button2.png	Button3.png	Button4.png	Redstar1.png							{button4}	0				6	1	6	0	TrialProc	NumberList2							1	{button4}	Button	10	33	161960	0	{Button4}	1972	163932	number
Wisconsin	1172	3	<?xml version="1.0"?>\n<Clock xmlns:dt="urn:schemas-microsoft-com:datatypes"><Description dt:dt="string">E-Prime Primary Realtime Clock</Description><StartTime><Timestamp dt:dt="int">0</Timestamp><DateUtc dt:dt="string">2023-01-13T09:34:09Z</DateUtc></StartTime><FrequencyChanges><FrequencyChange><Frequency dt:dt="r8">10000000</Frequency><Timestamp dt:dt="r8">23457159188256</Timestamp><Current dt:dt="r8">0</Current><DateUtc dt:dt="string">2023-01-13T09:34:09Z</DateUtc></FrequencyChange></FrequencyChanges></Clock>\n	Wisconsin-1172-3	60.014	1.0.0.255	1	-1949571063	Full	3.0.3.80	3.0.3.80	01-13-2023	1/13/2023 9:34:10 AM	17:34:10	Keyboard	Keyboard	Keyboard	3.0.3.82	Keyboard	2					2	1	1		BlockProc2	List2	2											3	1	2				NumberProc2	List4											7	Button1.png	Button2.png	Button3.png	Button4.png	Redtriangle2.png							{button1}	0				7	1	7	0	TrialProc	NumberList2							1	{button1}	Button	1	33	166509	0	{Button1}	3647	170156	number
Wisconsin	1172	3	<?xml version="1.0"?>\n<Clock xmlns:dt="urn:schemas-microsoft-com:datatypes"><Description dt:dt="string">E-Prime Primary Realtime Clock</Description><StartTime><Timestamp dt:dt="int">0</Timestamp><DateUtc dt:dt="string">2023-01-13T09:34:09Z</DateUtc></StartTime><FrequencyChanges><FrequencyChange><Frequency dt:dt="r8">10000000</Frequency><Timestamp dt:dt="r8">23457159188256</Timestamp><Current dt:dt="r8">0</Current><DateUtc dt:dt="string">2023-01-13T09:34:09Z</DateUtc></FrequencyChange></FrequencyChanges></Clock>\n	Wisconsin-1172-3	60.014	1.0.0.255	1	-1949571063	Full	3.0.3.80	3.0.3.80	01-13-2023	1/13/2023 9:34:10 AM	17:34:10	Keyboard	Keyboard	Keyboard	3.0.3.82	Keyboard	2					2	1	1		BlockProc2	List2	2											3	1	2				NumberProc2	List4											8	Button1.png	Button2.png	Button3.png	Button4.png	yellowcircle4.png							{button2}	0				8	1	8	0	TrialProc	NumberList2							1	{button2}	Button	11	33	172740	0	{Button2}	1153	173893	number
Wisconsin	1172	3	<?xml version="1.0"?>\n<Clock xmlns:dt="urn:schemas-microsoft-com:datatypes"><Description dt:dt="string">E-Prime Primary Realtime Clock</Description><StartTime><Timestamp dt:dt="int">0</Timestamp><DateUtc dt:dt="string">2023-01-13T09:34:09Z</DateUtc></StartTime><FrequencyChanges><FrequencyChange><Frequency dt:dt="r8">10000000</Frequency><Timestamp dt:dt="r8">23457159188256</Timestamp><Current dt:dt="r8">0</Current><DateUtc dt:dt="string">2023-01-13T09:34:09Z</DateUtc></FrequencyChange></FrequencyChanges></Clock>\n	Wisconsin-1172-3	60.014	1.0.0.255	1	-1949571063	Full	3.0.3.80	3.0.3.80	01-13-2023	1/13/2023 9:34:10 AM	17:34:10	Keyboard	Keyboard	Keyboard	3.0.3.82	Keyboard	2					2	1	1		BlockProc2	List2	2											3	1	2				NumberProc2	List4											9	Button1.png	Button2.png	Button3.png	Button4.png	Yellowcross2.png							{button1}	0				9	1	9	0	TrialProc	NumberList2							1	{button1}	Button	9	33	176473	0	{Button1}	2331	178804	number
Wisconsin	1172	3	<?xml version="1.0"?>\n<Clock xmlns:dt="urn:schemas-microsoft-com:datatypes"><Description dt:dt="string">E-Prime Primary Realtime Clock</Description><StartTime><Timestamp dt:dt="int">0</Timestamp><DateUtc dt:dt="string">2023-01-13T09:34:09Z</DateUtc></StartTime><FrequencyChanges><FrequencyChange><Frequency dt:dt="r8">10000000</Frequency><Timestamp dt:dt="r8">23457159188256</Timestamp><Current dt:dt="r8">0</Current><DateUtc dt:dt="string">2023-01-13T09:34:09Z</DateUtc></FrequencyChange></FrequencyChanges></Clock>\n	Wisconsin-1172-3	60.014	1.0.0.255	1	-1949571063	Full	3.0.3.80	3.0.3.80	01-13-2023	1/13/2023 9:34:10 AM	17:34:10	Keyboard	Keyboard	Keyboard	3.0.3.82	Keyboard	2					2	1	1		BlockProc2	List2	2											3	1	2				NumberProc2	List4											10	Button1.png	Button2.png	Button3.png	Button4.png	Yellowtriangle2.png							{button3}	0				10	1	10	0	TrialProc	NumberList2							0	{button3}	Button	10	33	181388	0	{Button2}	1144	182532	number
Wisconsin	1172	3	<?xml version="1.0"?>\n<Clock xmlns:dt="urn:schemas-microsoft-com:datatypes"><Description dt:dt="string">E-Prime Primary Realtime Clock</Description><StartTime><Timestamp dt:dt="int">0</Timestamp><DateUtc dt:dt="string">2023-01-13T09:34:09Z</DateUtc></StartTime><FrequencyChanges><FrequencyChange><Frequency dt:dt="r8">10000000</Frequency><Timestamp dt:dt="r8">23457159188256</Timestamp><Current dt:dt="r8">0</Current><DateUtc dt:dt="string">2023-01-13T09:34:09Z</DateUtc></FrequencyChange></FrequencyChanges></Clock>\n	Wisconsin-1172-3	60.014	1.0.0.255	1	-1949571063	Full	3.0.3.80	3.0.3.80	01-13-2023	1/13/2023 9:34:10 AM	17:34:10	Keyboard	Keyboard	Keyboard	3.0.3.82	Keyboard	2					2	1	1		BlockProc2	List2	3											2	1	3				ShapeProc2	List4											1	Button1.png	Button2.png	Button3.png	Button4.png	Bluecircle3.png							{button1}	0							0	TrialProc	ShapeList2				1	1	1	0	{button1}	Button	10	49	185137	0	{Button3}	1875	187012	Shape
Wisconsin	1172	3	<?xml version="1.0"?>\n<Clock xmlns:dt="urn:schemas-microsoft-com:datatypes"><Description dt:dt="string">E-Prime Primary Realtime Clock</Description><StartTime><Timestamp dt:dt="int">0</Timestamp><DateUtc dt:dt="string">2023-01-13T09:34:09Z</DateUtc></StartTime><FrequencyChanges><FrequencyChange><Frequency dt:dt="r8">10000000</Frequency><Timestamp dt:dt="r8">23457159188256</Timestamp><Current dt:dt="r8">0</Current><DateUtc dt:dt="string">2023-01-13T09:34:09Z</DateUtc></FrequencyChange></FrequencyChanges></Clock>\n	Wisconsin-1172-3	60.014	1.0.0.255	1	-1949571063	Full	3.0.3.80	3.0.3.80	01-13-2023	1/13/2023 9:34:10 AM	17:34:10	Keyboard	Keyboard	Keyboard	3.0.3.82	Keyboard	2					2	1	1		BlockProc2	List2	3											2	1	3				ShapeProc2	List4											2	Button1.png	Button2.png	Button3.png	Button4.png	Greenstar3.png							{button4}	0							0	TrialProc	ShapeList2				3	1	2	1	{button4}	Button	10	50	189603	0	{Button4}	2793	192396	Shape
Wisconsin	1172	3	<?xml version="1.0"?>\n<Clock xmlns:dt="urn:schemas-microsoft-com:datatypes"><Description dt:dt="string">E-Prime Primary Realtime Clock</Description><StartTime><Timestamp dt:dt="int">0</Timestamp><DateUtc dt:dt="string">2023-01-13T09:34:09Z</DateUtc></StartTime><FrequencyChanges><FrequencyChange><Frequency dt:dt="r8">10000000</Frequency><Timestamp dt:dt="r8">23457159188256</Timestamp><Current dt:dt="r8">0</Current><DateUtc dt:dt="string">2023-01-13T09:34:09Z</DateUtc></FrequencyChange></FrequencyChanges></Clock>\n	Wisconsin-1172-3	60.014	1.0.0.255	1	-1949571063	Full	3.0.3.80	3.0.3.80	01-13-2023	1/13/2023 9:34:10 AM	17:34:10	Keyboard	Keyboard	Keyboard	3.0.3.82	Keyboard	2					2	1	1		BlockProc2	List2	3											2	1	3				ShapeProc2	List4											3	Button1.png	Button2.png	Button3.png	Button4.png	Redtriangle3.png							{button2}	0							0	TrialProc	ShapeList2				7	1	3	1	{button2}	Button	10	33	194968	0	{Button2}	1172	196140	Shape
Wisconsin	1172	3	<?xml version="1.0"?>\n<Clock xmlns:dt="urn:schemas-microsoft-com:datatypes"><Description dt:dt="string">E-Prime Primary Realtime Clock</Description><StartTime><Timestamp dt:dt="int">0</Timestamp><DateUtc dt:dt="string">2023-01-13T09:34:09Z</DateUtc></StartTime><FrequencyChanges><FrequencyChange><Frequency dt:dt="r8">10000000</Frequency><Timestamp dt:dt="r8">23457159188256</Timestamp><Current dt:dt="r8">0</Current><DateUtc dt:dt="string">2023-01-13T09:34:09Z</DateUtc></FrequencyChange></FrequencyChanges></Clock>\n	Wisconsin-1172-3	60.014	1.0.0.255	1	-1949571063	Full	3.0.3.80	3.0.3.80	01-13-2023	1/13/2023 9:34:10 AM	17:34:10	Keyboard	Keyboard	Keyboard	3.0.3.82	Keyboard	2					2	1	1		BlockProc2	List2	3											2	1	3				ShapeProc2	List4											4	Button1.png	Button2.png	Button3.png	Button4.png	redcircle1.png							{button1}	0							0	TrialProc	ShapeList2				4	1	4	1	{button1}	Button	10	33	198717	0	{Button1}	2959	201676	Shape
Wisconsin	1172	3	<?xml version="1.0"?>\n<Clock xmlns:dt="urn:schemas-microsoft-com:datatypes"><Description dt:dt="string">E-Prime Primary Realtime Clock</Description><StartTime><Timestamp dt:dt="int">0</Timestamp><DateUtc dt:dt="string">2023-01-13T09:34:09Z</DateUtc></StartTime><FrequencyChanges><FrequencyChange><Frequency dt:dt="r8">10000000</Frequency><Timestamp dt:dt="r8">23457159188256</Timestamp><Current dt:dt="r8">0</Current><DateUtc dt:dt="string">2023-01-13T09:34:09Z</DateUtc></FrequencyChange></FrequencyChanges></Clock>\n	Wisconsin-1172-3	60.014	1.0.0.255	1	-1949571063	Full	3.0.3.80	3.0.3.80	01-13-2023	1/13/2023 9:34:10 AM	17:34:10	Keyboard	Keyboard	Keyboard	3.0.3.82	Keyboard	2					2	1	1		BlockProc2	List2	3											2	1	3				ShapeProc2	List4											5	Button1.png	Button2.png	Button3.png	Button4.png	Yellowstar2.png							{button4}	0							0	TrialProc	ShapeList2				9	1	5	1	{button4}	Button	9	33	204266	0	{Button4}	2762	207028	Shape
Wisconsin	1172	3	<?xml version="1.0"?>\n<Clock xmlns:dt="urn:schemas-microsoft-com:datatypes"><Description dt:dt="string">E-Prime Primary Realtime Clock</Description><StartTime><Timestamp dt:dt="int">0</Timestamp><DateUtc dt:dt="string">2023-01-13T09:34:09Z</DateUtc></StartTime><FrequencyChanges><FrequencyChange><Frequency dt:dt="r8">10000000</Frequency><Timestamp dt:dt="r8">23457159188256</Timestamp><Current dt:dt="r8">0</Current><DateUtc dt:dt="string">2023-01-13T09:34:09Z</DateUtc></FrequencyChange></FrequencyChanges></Clock>\n	Wisconsin-1172-3	60.014	1.0.0.255	1	-1949571063	Full	3.0.3.80	3.0.3.80	01-13-2023	1/13/2023 9:34:10 AM	17:34:10	Keyboard	Keyboard	Keyboard	3.0.3.82	Keyboard	2					2	1	1		BlockProc2	List2	3											2	1	3				ShapeProc2	List4											6	Button1.png	Button2.png	Button3.png	Button4.png	Redcross2.png							{button3}	0							0	TrialProc	ShapeList2				5	1	6	1	{button3}	Button	14	49	209631	0	{Button3}	1549	211180	Shape
Wisconsin	1172	3	<?xml version="1.0"?>\n<Clock xmlns:dt="urn:schemas-microsoft-com:datatypes"><Description dt:dt="string">E-Prime Primary Realtime Clock</Description><StartTime><Timestamp dt:dt="int">0</Timestamp><DateUtc dt:dt="string">2023-01-13T09:34:09Z</DateUtc></StartTime><FrequencyChanges><FrequencyChange><Frequency dt:dt="r8">10000000</Frequency><Timestamp dt:dt="r8">23457159188256</Timestamp><Current dt:dt="r8">0</Current><DateUtc dt:dt="string">2023-01-13T09:34:09Z</DateUtc></FrequencyChange></FrequencyChanges></Clock>\n	Wisconsin-1172-3	60.014	1.0.0.255	1	-1949571063	Full	3.0.3.80	3.0.3.80	01-13-2023	1/13/2023 9:34:10 AM	17:34:10	Keyboard	Keyboard	Keyboard	3.0.3.82	Keyboard	2					2	1	1		BlockProc2	List2	3											2	1	3				ShapeProc2	List4											7	Button1.png	Button2.png	Button3.png	Button4.png	Bluetriangle2.png							{button2}	0							0	TrialProc	ShapeList2				2	1	7	1	{button2}	Button	9	33	213764	0	{Button2}	1504	215268	Shape
Wisconsin	1172	3	<?xml version="1.0"?>\n<Clock xmlns:dt="urn:schemas-microsoft-com:datatypes"><Description dt:dt="string">E-Prime Primary Realtime Clock</Description><StartTime><Timestamp dt:dt="int">0</Timestamp><DateUtc dt:dt="string">2023-01-13T09:34:09Z</DateUtc></StartTime><FrequencyChanges><FrequencyChange><Frequency dt:dt="r8">10000000</Frequency><Timestamp dt:dt="r8">23457159188256</Timestamp><Current dt:dt="r8">0</Current><DateUtc dt:dt="string">2023-01-13T09:34:09Z</DateUtc></FrequencyChange></FrequencyChanges></Clock>\n	Wisconsin-1172-3	60.014	1.0.0.255	1	-1949571063	Full	3.0.3.80	3.0.3.80	01-13-2023	1/13/2023 9:34:10 AM	17:34:10	Keyboard	Keyboard	Keyboard	3.0.3.82	Keyboard	2					2	1	1		BlockProc2	List2	3											2	1	3				ShapeProc2	List4											8	Button1.png	Button2.png	Button3.png	Button4.png	yellowcross4.png							{button3}	0							0	TrialProc	ShapeList2				8	1	8	0	{button3}	Button	10	33	217846	0	{Button2}	1110	218956	Shape
Wisconsin	1172	3	<?xml version="1.0"?>\n<Clock xmlns:dt="urn:schemas-microsoft-com:datatypes"><Description dt:dt="string">E-Prime Primary Realtime Clock</Description><StartTime><Timestamp dt:dt="int">0</Timestamp><DateUtc dt:dt="string">2023-01-13T09:34:09Z</DateUtc></StartTime><FrequencyChanges><FrequencyChange><Frequency dt:dt="r8">10000000</Frequency><Timestamp dt:dt="r8">23457159188256</Timestamp><Current dt:dt="r8">0</Current><DateUtc dt:dt="string">2023-01-13T09:34:09Z</DateUtc></FrequencyChange></FrequencyChanges></Clock>\n	Wisconsin-1172-3	60.014	1.0.0.255	1	-1949571063	Full	3.0.3.80	3.0.3.80	01-13-2023	1/13/2023 9:34:10 AM	17:34:10	Keyboard	Keyboard	Keyboard	3.0.3.82	Keyboard	2					2	1	1		BlockProc2	List2	3											2	1	3				ShapeProc2	List4											9	Button1.png	Button2.png	Button3.png	Button4.png	Yellowtriangle1.png							{button2}	0							0	TrialProc	ShapeList2				10	1	9	1	{button2}	Button	10	50	221545	0	{Button2}	1316	222861	Shape
Wisconsin	1172	3	<?xml version="1.0"?>\n<Clock xmlns:dt="urn:schemas-microsoft-com:datatypes"><Description dt:dt="string">E-Prime Primary Realtime Clock</Description><StartTime><Timestamp dt:dt="int">0</Timestamp><DateUtc dt:dt="string">2023-01-13T09:34:09Z</DateUtc></StartTime><FrequencyChanges><FrequencyChange><Frequency dt:dt="r8">10000000</Frequency><Timestamp dt:dt="r8">23457159188256</Timestamp><Current dt:dt="r8">0</Current><DateUtc dt:dt="string">2023-01-13T09:34:09Z</DateUtc></FrequencyChange></FrequencyChanges></Clock>\n	Wisconsin-1172-3	60.014	1.0.0.255	1	-1949571063	Full	3.0.3.80	3.0.3.80	01-13-2023	1/13/2023 9:34:10 AM	17:34:10	Keyboard	Keyboard	Keyboard	3.0.3.82	Keyboard	2					2	1	1		BlockProc2	List2	3											2	1	3				ShapeProc2	List4											10	Button1.png	Button2.png	Button3.png	Button4.png	Redstar3.png							{button4}	0							0	TrialProc	ShapeList2				6	1	10	1	{button4}	Button	9	50	225461	0	{Button4}	2207	227668	Shape
Wisconsin	1172	3	<?xml version="1.0"?>\n<Clock xmlns:dt="urn:schemas-microsoft-com:datatypes"><Description dt:dt="string">E-Prime Primary Realtime Clock</Description><StartTime><Timestamp dt:dt="int">0</Timestamp><DateUtc dt:dt="string">2023-01-13T09:34:09Z</DateUtc></StartTime><FrequencyChanges><FrequencyChange><Frequency dt:dt="r8">10000000</Frequency><Timestamp dt:dt="r8">23457159188256</Timestamp><Current dt:dt="r8">0</Current><DateUtc dt:dt="string">2023-01-13T09:34:09Z</DateUtc></FrequencyChange></FrequencyChanges></Clock>\n	Wisconsin-1172-3	60.014	1.0.0.255	1	-1949571063	Full	3.0.3.80	3.0.3.80	01-13-2023	1/13/2023 9:34:10 AM	17:34:10	Keyboard	Keyboard	Keyboard	3.0.3.82	Keyboard	3					1	1	2		BlockProc	List2	1								2	1	1							ShapeProc	List3											1	Button1.png	Button2.png	Button3.png	Button4.png	Greencross1.png							{Button3}	0							0	TrialProc	ShapeList	3	1	1				1	{Button3}	Button	9	33	230243	0	{Button3}	1905	232148	Shape
Wisconsin	1172	3	<?xml version="1.0"?>\n<Clock xmlns:dt="urn:schemas-microsoft-com:datatypes"><Description dt:dt="string">E-Prime Primary Realtime Clock</Description><StartTime><Timestamp dt:dt="int">0</Timestamp><DateUtc dt:dt="string">2023-01-13T09:34:09Z</DateUtc></StartTime><FrequencyChanges><FrequencyChange><Frequency dt:dt="r8">10000000</Frequency><Timestamp dt:dt="r8">23457159188256</Timestamp><Current dt:dt="r8">0</Current><DateUtc dt:dt="string">2023-01-13T09:34:09Z</DateUtc></FrequencyChange></FrequencyChanges></Clock>\n	Wisconsin-1172-3	60.014	1.0.0.255	1	-1949571063	Full	3.0.3.80	3.0.3.80	01-13-2023	1/13/2023 9:34:10 AM	17:34:10	Keyboard	Keyboard	Keyboard	3.0.3.82	Keyboard	3					1	1	2		BlockProc	List2	1								2	1	1							ShapeProc	List3											2	Button1.png	Button2.png	Button3.png	Button4.png	Redtriangle1.png							{Button2}	0							0	TrialProc	ShapeList	7	1	2				1	{Button2}	Button	10	33	234725	0	{Button2}	1775	236500	Shape
Wisconsin	1172	3	<?xml version="1.0"?>\n<Clock xmlns:dt="urn:schemas-microsoft-com:datatypes"><Description dt:dt="string">E-Prime Primary Realtime Clock</Description><StartTime><Timestamp dt:dt="int">0</Timestamp><DateUtc dt:dt="string">2023-01-13T09:34:09Z</DateUtc></StartTime><FrequencyChanges><FrequencyChange><Frequency dt:dt="r8">10000000</Frequency><Timestamp dt:dt="r8">23457159188256</Timestamp><Current dt:dt="r8">0</Current><DateUtc dt:dt="string">2023-01-13T09:34:09Z</DateUtc></FrequencyChange></FrequencyChanges></Clock>\n	Wisconsin-1172-3	60.014	1.0.0.255	1	-1949571063	Full	3.0.3.80	3.0.3.80	01-13-2023	1/13/2023 9:34:10 AM	17:34:10	Keyboard	Keyboard	Keyboard	3.0.3.82	Keyboard	3					1	1	2		BlockProc	List2	1								2	1	1							ShapeProc	List3											3	Button1.png	Button2.png	Button3.png	Button4.png	Redcross4.png							{Button3}	0							0	TrialProc	ShapeList	6	1	3				1	{Button3}	Button	10	33	239074	0	{Button3}	1114	240188	Shape
Wisconsin	1172	3	<?xml version="1.0"?>\n<Clock xmlns:dt="urn:schemas-microsoft-com:datatypes"><Description dt:dt="string">E-Prime Primary Realtime Clock</Description><StartTime><Timestamp dt:dt="int">0</Timestamp><DateUtc dt:dt="string">2023-01-13T09:34:09Z</DateUtc></StartTime><FrequencyChanges><FrequencyChange><Frequency dt:dt="r8">10000000</Frequency><Timestamp dt:dt="r8">23457159188256</Timestamp><Current dt:dt="r8">0</Current><DateUtc dt:dt="string">2023-01-13T09:34:09Z</DateUtc></FrequencyChange></FrequencyChanges></Clock>\n	Wisconsin-1172-3	60.014	1.0.0.255	1	-1949571063	Full	3.0.3.80	3.0.3.80	01-13-2023	1/13/2023 9:34:10 AM	17:34:10	Keyboard	Keyboard	Keyboard	3.0.3.82	Keyboard	3					1	1	2		BlockProc	List2	1								2	1	1							ShapeProc	List3											4	Button1.png	Button2.png	Button3.png	Button4.png	Yellowstar1.png							{Button4}	0							0	TrialProc	ShapeList	9	1	4				1	{Button4}	Button	13	50	242790	0	{Button4}	1742	244532	Shape
Wisconsin	1172	3	<?xml version="1.0"?>\n<Clock xmlns:dt="urn:schemas-microsoft-com:datatypes"><Description dt:dt="string">E-Prime Primary Realtime Clock</Description><StartTime><Timestamp dt:dt="int">0</Timestamp><DateUtc dt:dt="string">2023-01-13T09:34:09Z</DateUtc></StartTime><FrequencyChanges><FrequencyChange><Frequency dt:dt="r8">10000000</Frequency><Timestamp dt:dt="r8">23457159188256</Timestamp><Current dt:dt="r8">0</Current><DateUtc dt:dt="string">2023-01-13T09:34:09Z</DateUtc></FrequencyChange></FrequencyChanges></Clock>\n	Wisconsin-1172-3	60.014	1.0.0.255	1	-1949571063	Full	3.0.3.80	3.0.3.80	01-13-2023	1/13/2023 9:34:10 AM	17:34:10	Keyboard	Keyboard	Keyboard	3.0.3.82	Keyboard	3					1	1	2		BlockProc	List2	1								2	1	1							ShapeProc	List3											5	Button1.png	Button2.png	Button3.png	Button4.png	yellowcircle3.png							{Button1}	0							0	TrialProc	ShapeList	8	1	5				1	{Button1}	Button	10	50	247122	0	{Button1}	2770	249892	Shape
Wisconsin	1172	3	<?xml version="1.0"?>\n<Clock xmlns:dt="urn:schemas-microsoft-com:datatypes"><Description dt:dt="string">E-Prime Primary Realtime Clock</Description><StartTime><Timestamp dt:dt="int">0</Timestamp><DateUtc dt:dt="string">2023-01-13T09:34:09Z</DateUtc></StartTime><FrequencyChanges><FrequencyChange><Frequency dt:dt="r8">10000000</Frequency><Timestamp dt:dt="r8">23457159188256</Timestamp><Current dt:dt="r8">0</Current><DateUtc dt:dt="string">2023-01-13T09:34:09Z</DateUtc></FrequencyChange></FrequencyChanges></Clock>\n	Wisconsin-1172-3	60.014	1.0.0.255	1	-1949571063	Full	3.0.3.80	3.0.3.80	01-13-2023	1/13/2023 9:34:10 AM	17:34:10	Keyboard	Keyboard	Keyboard	3.0.3.82	Keyboard	3					1	1	2		BlockProc	List2	1								2	1	1							ShapeProc	List3											6	Button1.png	Button2.png	Button3.png	Button4.png	Bluecross4.png							{Button3}	0							0	TrialProc	ShapeList	2	1	6				1	{Button3}	Button	9	50	252488	0	{Button3}	2108	254596	Shape
Wisconsin	1172	3	<?xml version="1.0"?>\n<Clock xmlns:dt="urn:schemas-microsoft-com:datatypes"><Description dt:dt="string">E-Prime Primary Realtime Clock</Description><StartTime><Timestamp dt:dt="int">0</Timestamp><DateUtc dt:dt="string">2023-01-13T09:34:09Z</DateUtc></StartTime><FrequencyChanges><FrequencyChange><Frequency dt:dt="r8">10000000</Frequency><Timestamp dt:dt="r8">23457159188256</Timestamp><Current dt:dt="r8">0</Current><DateUtc dt:dt="string">2023-01-13T09:34:09Z</DateUtc></FrequencyChange></FrequencyChanges></Clock>\n	Wisconsin-1172-3	60.014	1.0.0.255	1	-1949571063	Full	3.0.3.80	3.0.3.80	01-13-2023	1/13/2023 9:34:10 AM	17:34:10	Keyboard	Keyboard	Keyboard	3.0.3.82	Keyboard	3					1	1	2		BlockProc	List2	1								2	1	1							ShapeProc	List3											7	Button1.png	Button2.png	Button3.png	Button4.png	Redcross1.png							{Button3}	0							0	TrialProc	ShapeList	5	1	7				1	{Button3}	Button	9	33	257170	0	{Button3}	1226	258396	Shape
Wisconsin	1172	3	<?xml version="1.0"?>\n<Clock xmlns:dt="urn:schemas-microsoft-com:datatypes"><Description dt:dt="string">E-Prime Primary Realtime Clock</Description><StartTime><Timestamp dt:dt="int">0</Timestamp><DateUtc dt:dt="string">2023-01-13T09:34:09Z</DateUtc></StartTime><FrequencyChanges><FrequencyChange><Frequency dt:dt="r8">10000000</Frequency><Timestamp dt:dt="r8">23457159188256</Timestamp><Current dt:dt="r8">0</Current><DateUtc dt:dt="string">2023-01-13T09:34:09Z</DateUtc></FrequencyChange></FrequencyChanges></Clock>\n	Wisconsin-1172-3	60.014	1.0.0.255	1	-1949571063	Full	3.0.3.80	3.0.3.80	01-13-2023	1/13/2023 9:34:10 AM	17:34:10	Keyboard	Keyboard	Keyboard	3.0.3.82	Keyboard	3					1	1	2		BlockProc	List2	1								2	1	1							ShapeProc	List3											8	Button1.png	Button2.png	Button3.png	Button4.png	Bluecircle2.png							{Button1}	0							0	TrialProc	ShapeList	1	1	8				1	{Button1}	Button	10	33	260969	0	{Button1}	1363	262332	Shape
Wisconsin	1172	3	<?xml version="1.0"?>\n<Clock xmlns:dt="urn:schemas-microsoft-com:datatypes"><Description dt:dt="string">E-Prime Primary Realtime Clock</Description><StartTime><Timestamp dt:dt="int">0</Timestamp><DateUtc dt:dt="string">2023-01-13T09:34:09Z</DateUtc></StartTime><FrequencyChanges><FrequencyChange><Frequency dt:dt="r8">10000000</Frequency><Timestamp dt:dt="r8">23457159188256</Timestamp><Current dt:dt="r8">0</Current><DateUtc dt:dt="string">2023-01-13T09:34:09Z</DateUtc></FrequencyChange></FrequencyChanges></Clock>\n	Wisconsin-1172-3	60.014	1.0.0.255	1	-1949571063	Full	3.0.3.80	3.0.3.80	01-13-2023	1/13/2023 9:34:10 AM	17:34:10	Keyboard	Keyboard	Keyboard	3.0.3.82	Keyboard	3					1	1	2		BlockProc	List2	1								2	1	1							ShapeProc	List3											9	Button1.png	Button2.png	Button3.png	Button4.png	Greentriangle4.png							{Button2}	0							0	TrialProc	ShapeList	4	1	9				1	{Button2}	Button	9	50	264935	0	{Button2}	1149	266084	Shape
Wisconsin	1172	3	<?xml version="1.0"?>\n<Clock xmlns:dt="urn:schemas-microsoft-com:datatypes"><Description dt:dt="string">E-Prime Primary Realtime Clock</Description><StartTime><Timestamp dt:dt="int">0</Timestamp><DateUtc dt:dt="string">2023-01-13T09:34:09Z</DateUtc></StartTime><FrequencyChanges><FrequencyChange><Frequency dt:dt="r8">10000000</Frequency><Timestamp dt:dt="r8">23457159188256</Timestamp><Current dt:dt="r8">0</Current><DateUtc dt:dt="string">2023-01-13T09:34:09Z</DateUtc></FrequencyChange></FrequencyChanges></Clock>\n	Wisconsin-1172-3	60.014	1.0.0.255	1	-1949571063	Full	3.0.3.80	3.0.3.80	01-13-2023	1/13/2023 9:34:10 AM	17:34:10	Keyboard	Keyboard	Keyboard	3.0.3.82	Keyboard	3					1	1	2		BlockProc	List2	1								2	1	1							ShapeProc	List3											10	Button1.png	Button2.png	Button3.png	Button4.png	Yellowstar4.png							{Button4}	0							0	TrialProc	ShapeList	10	1	10				1	{Button4}	Button	10	33	268650	0	{Button4}	1378	270028	Shape
Wisconsin	1172	3	<?xml version="1.0"?>\n<Clock xmlns:dt="urn:schemas-microsoft-com:datatypes"><Description dt:dt="string">E-Prime Primary Realtime Clock</Description><StartTime><Timestamp dt:dt="int">0</Timestamp><DateUtc dt:dt="string">2023-01-13T09:34:09Z</DateUtc></StartTime><FrequencyChanges><FrequencyChange><Frequency dt:dt="r8">10000000</Frequency><Timestamp dt:dt="r8">23457159188256</Timestamp><Current dt:dt="r8">0</Current><DateUtc dt:dt="string">2023-01-13T09:34:09Z</DateUtc></FrequencyChange></FrequencyChanges></Clock>\n	Wisconsin-1172-3	60.014	1.0.0.255	1	-1949571063	Full	3.0.3.80	3.0.3.80	01-13-2023	1/13/2023 9:34:10 AM	17:34:10	Keyboard	Keyboard	Keyboard	3.0.3.82	Keyboard	3					1	1	2		BlockProc	List2	2								3	1	2							NumberProc	List3											1	Button1.png	Button2.png	Button3.png	Button4.png	Yellowcross1.png							{Button4}	0	9	1	1				0	TrialProc	NumberList							0	{Button4}	Button	10	33	272616	0	{Button3}	1285	273901	number
Wisconsin	1172	3	<?xml version="1.0"?>\n<Clock xmlns:dt="urn:schemas-microsoft-com:datatypes"><Description dt:dt="string">E-Prime Primary Realtime Clock</Description><StartTime><Timestamp dt:dt="int">0</Timestamp><DateUtc dt:dt="string">2023-01-13T09:34:09Z</DateUtc></StartTime><FrequencyChanges><FrequencyChange><Frequency dt:dt="r8">10000000</Frequency><Timestamp dt:dt="r8">23457159188256</Timestamp><Current dt:dt="r8">0</Current><DateUtc dt:dt="string">2023-01-13T09:34:09Z</DateUtc></FrequencyChange></FrequencyChanges></Clock>\n	Wisconsin-1172-3	60.014	1.0.0.255	1	-1949571063	Full	3.0.3.80	3.0.3.80	01-13-2023	1/13/2023 9:34:10 AM	17:34:10	Keyboard	Keyboard	Keyboard	3.0.3.82	Keyboard	3					1	1	2		BlockProc	List2	2								3	1	2							NumberProc	List3											2	Button1.png	Button2.png	Button3.png	Button4.png	Bluestar2.png							{Button1}	0	2	1	2				0	TrialProc	NumberList							0	{Button1}	Button	1	33	276482	0	{Button4}	1354	277836	number
Wisconsin	1172	3	<?xml version="1.0"?>\n<Clock xmlns:dt="urn:schemas-microsoft-com:datatypes"><Description dt:dt="string">E-Prime Primary Realtime Clock</Description><StartTime><Timestamp dt:dt="int">0</Timestamp><DateUtc dt:dt="string">2023-01-13T09:34:09Z</DateUtc></StartTime><FrequencyChanges><FrequencyChange><Frequency dt:dt="r8">10000000</Frequency><Timestamp dt:dt="r8">23457159188256</Timestamp><Current dt:dt="r8">0</Current><DateUtc dt:dt="string">2023-01-13T09:34:09Z</DateUtc></FrequencyChange></FrequencyChanges></Clock>\n	Wisconsin-1172-3	60.014	1.0.0.255	1	-1949571063	Full	3.0.3.80	3.0.3.80	01-13-2023	1/13/2023 9:34:10 AM	17:34:10	Keyboard	Keyboard	Keyboard	3.0.3.82	Keyboard	3					1	1	2		BlockProc	List2	2								3	1	2							NumberProc	List3											3	Button1.png	Button2.png	Button3.png	Button4.png	Bluecircle4.png							{Button2}	0	1	1	3				0	TrialProc	NumberList							1	{Button2}	Button	9	33	280414	0	{Button2}	806	281220	number
Wisconsin	1172	3	<?xml version="1.0"?>\n<Clock xmlns:dt="urn:schemas-microsoft-com:datatypes"><Description dt:dt="string">E-Prime Primary Realtime Clock</Description><StartTime><Timestamp dt:dt="int">0</Timestamp><DateUtc dt:dt="string">2023-01-13T09:34:09Z</DateUtc></StartTime><FrequencyChanges><FrequencyChange><Frequency dt:dt="r8">10000000</Frequency><Timestamp dt:dt="r8">23457159188256</Timestamp><Current dt:dt="r8">0</Current><DateUtc dt:dt="string">2023-01-13T09:34:09Z</DateUtc></FrequencyChange></FrequencyChanges></Clock>\n	Wisconsin-1172-3	60.014	1.0.0.255	1	-1949571063	Full	3.0.3.80	3.0.3.80	01-13-2023	1/13/2023 9:34:10 AM	17:34:10	Keyboard	Keyboard	Keyboard	3.0.3.82	Keyboard	3					1	1	2		BlockProc	List2	2								3	1	2							NumberProc	List3											4	Button1.png	Button2.png	Button3.png	Button4.png	Redcircle4.png							{Button2}	0	6	1	4				0	TrialProc	NumberList							1	{Button2}	Button	13	49	283813	0	{Button2}	999	284812	number
Wisconsin	1172	3	<?xml version="1.0"?>\n<Clock xmlns:dt="urn:schemas-microsoft-com:datatypes"><Description dt:dt="string">E-Prime Primary Realtime Clock</Description><StartTime><Timestamp dt:dt="int">0</Timestamp><DateUtc dt:dt="string">2023-01-13T09:34:09Z</DateUtc></StartTime><FrequencyChanges><FrequencyChange><Frequency dt:dt="r8">10000000</Frequency><Timestamp dt:dt="r8">23457159188256</Timestamp><Current dt:dt="r8">0</Current><DateUtc dt:dt="string">2023-01-13T09:34:09Z</DateUtc></FrequencyChange></FrequencyChanges></Clock>\n	Wisconsin-1172-3	60.014	1.0.0.255	1	-1949571063	Full	3.0.3.80	3.0.3.80	01-13-2023	1/13/2023 9:34:10 AM	17:34:10	Keyboard	Keyboard	Keyboard	3.0.3.82	Keyboard	3					1	1	2		BlockProc	List2	2								3	1	2							NumberProc	List3											5	Button1.png	Button2.png	Button3.png	Button4.png	Greencircle4.png							{Button2}	0	4	1	5				0	TrialProc	NumberList							1	{Button2}	Button	10	33	287396	0	{Button2}	880	288276	number
Wisconsin	1172	3	<?xml version="1.0"?>\n<Clock xmlns:dt="urn:schemas-microsoft-com:datatypes"><Description dt:dt="string">E-Prime Primary Realtime Clock</Description><StartTime><Timestamp dt:dt="int">0</Timestamp><DateUtc dt:dt="string">2023-01-13T09:34:09Z</DateUtc></StartTime><FrequencyChanges><FrequencyChange><Frequency dt:dt="r8">10000000</Frequency><Timestamp dt:dt="r8">23457159188256</Timestamp><Current dt:dt="r8">0</Current><DateUtc dt:dt="string">2023-01-13T09:34:09Z</DateUtc></FrequencyChange></FrequencyChanges></Clock>\n	Wisconsin-1172-3	60.014	1.0.0.255	1	-1949571063	Full	3.0.3.80	3.0.3.80	01-13-2023	1/13/2023 9:34:10 AM	17:34:10	Keyboard	Keyboard	Keyboard	3.0.3.82	Keyboard	3					1	1	2		BlockProc	List2	2								3	1	2							NumberProc	List3											6	Button1.png	Button2.png	Button3.png	Button4.png	Yellowcross3.png							{Button3}	0	10	1	6				0	TrialProc	NumberList							1	{Button3}	Button	12	50	290878	0	{Button3}	1334	292212	number
Wisconsin	1172	3	<?xml version="1.0"?>\n<Clock xmlns:dt="urn:schemas-microsoft-com:datatypes"><Description dt:dt="string">E-Prime Primary Realtime Clock</Description><StartTime><Timestamp dt:dt="int">0</Timestamp><DateUtc dt:dt="string">2023-01-13T09:34:09Z</DateUtc></StartTime><FrequencyChanges><FrequencyChange><Frequency dt:dt="r8">10000000</Frequency><Timestamp dt:dt="r8">23457159188256</Timestamp><Current dt:dt="r8">0</Current><DateUtc dt:dt="string">2023-01-13T09:34:09Z</DateUtc></FrequencyChange></FrequencyChanges></Clock>\n	Wisconsin-1172-3	60.014	1.0.0.255	1	-1949571063	Full	3.0.3.80	3.0.3.80	01-13-2023	1/13/2023 9:34:10 AM	17:34:10	Keyboard	Keyboard	Keyboard	3.0.3.82	Keyboard	3					1	1	2		BlockProc	List2	2								3	1	2							NumberProc	List3											7	Button1.png	Button2.png	Button3.png	Button4.png	Bluetriangle1.png							{Button4}	0	3	1	7				0	TrialProc	NumberList							1	{Button4}	Button	10	33	294794	0	{Button4}	1178	295972	number
Wisconsin	1172	3	<?xml version="1.0"?>\n<Clock xmlns:dt="urn:schemas-microsoft-com:datatypes"><Description dt:dt="string">E-Prime Primary Realtime Clock</Description><StartTime><Timestamp dt:dt="int">0</Timestamp><DateUtc dt:dt="string">2023-01-13T09:34:09Z</DateUtc></StartTime><FrequencyChanges><FrequencyChange><Frequency dt:dt="r8">10000000</Frequency><Timestamp dt:dt="r8">23457159188256</Timestamp><Current dt:dt="r8">0</Current><DateUtc dt:dt="string">2023-01-13T09:34:09Z</DateUtc></FrequencyChange></FrequencyChanges></Clock>\n	Wisconsin-1172-3	60.014	1.0.0.255	1	-1949571063	Full	3.0.3.80	3.0.3.80	01-13-2023	1/13/2023 9:34:10 AM	17:34:10	Keyboard	Keyboard	Keyboard	3.0.3.82	Keyboard	3					1	1	2		BlockProc	List2	2								3	1	2							NumberProc	List3											8	Button1.png	Button2.png	Button3.png	Button4.png	Greencross3.png							{Button3}	0	5	1	8				0	TrialProc	NumberList							1	{Button3}	Button	10	33	298560	0	{Button3}	972	299532	number
Wisconsin	1172	3	<?xml version="1.0"?>\n<Clock xmlns:dt="urn:schemas-microsoft-com:datatypes"><Description dt:dt="string">E-Prime Primary Realtime Clock</Description><StartTime><Timestamp dt:dt="int">0</Timestamp><DateUtc dt:dt="string">2023-01-13T09:34:09Z</DateUtc></StartTime><FrequencyChanges><FrequencyChange><Frequency dt:dt="r8">10000000</Frequency><Timestamp dt:dt="r8">23457159188256</Timestamp><Current dt:dt="r8">0</Current><DateUtc dt:dt="string">2023-01-13T09:34:09Z</DateUtc></FrequencyChange></FrequencyChanges></Clock>\n	Wisconsin-1172-3	60.014	1.0.0.255	1	-1949571063	Full	3.0.3.80	3.0.3.80	01-13-2023	1/13/2023 9:34:10 AM	17:34:10	Keyboard	Keyboard	Keyboard	3.0.3.82	Keyboard	3					1	1	2		BlockProc	List2	2								3	1	2							NumberProc	List3											9	Button1.png	Button2.png	Button3.png	Button4.png	Redstar2.png							{Button1}	0	7	1	9				0	TrialProc	NumberList							1	{Button1}	Button	10	49	302125	0	{Button1}	1415	303540	number
Wisconsin	1172	3	<?xml version="1.0"?>\n<Clock xmlns:dt="urn:schemas-microsoft-com:datatypes"><Description dt:dt="string">E-Prime Primary Realtime Clock</Description><StartTime><Timestamp dt:dt="int">0</Timestamp><DateUtc dt:dt="string">2023-01-13T09:34:09Z</DateUtc></StartTime><FrequencyChanges><FrequencyChange><Frequency dt:dt="r8">10000000</Frequency><Timestamp dt:dt="r8">23457159188256</Timestamp><Current dt:dt="r8">0</Current><DateUtc dt:dt="string">2023-01-13T09:34:09Z</DateUtc></FrequencyChange></FrequencyChanges></Clock>\n	Wisconsin-1172-3	60.014	1.0.0.255	1	-1949571063	Full	3.0.3.80	3.0.3.80	01-13-2023	1/13/2023 9:34:10 AM	17:34:10	Keyboard	Keyboard	Keyboard	3.0.3.82	Keyboard	3					1	1	2		BlockProc	List2	2								3	1	2							NumberProc	List3											10	Button1.png	Button2.png	Button3.png	Button4.png	Redtriangle4.png							{Button2}	0	8	1	10				0	TrialProc	NumberList							1	{Button2}	Button	10	50	306141	0	{Button2}	1663	307804	number
Wisconsin	1172	3	<?xml version="1.0"?>\n<Clock xmlns:dt="urn:schemas-microsoft-com:datatypes"><Description dt:dt="string">E-Prime Primary Realtime Clock</Description><StartTime><Timestamp dt:dt="int">0</Timestamp><DateUtc dt:dt="string">2023-01-13T09:34:09Z</DateUtc></StartTime><FrequencyChanges><FrequencyChange><Frequency dt:dt="r8">10000000</Frequency><Timestamp dt:dt="r8">23457159188256</Timestamp><Current dt:dt="r8">0</Current><DateUtc dt:dt="string">2023-01-13T09:34:09Z</DateUtc></FrequencyChange></FrequencyChanges></Clock>\n	Wisconsin-1172-3	60.014	1.0.0.255	1	-1949571063	Full	3.0.3.80	3.0.3.80	01-13-2023	1/13/2023 9:34:10 AM	17:34:10	Keyboard	Keyboard	Keyboard	3.0.3.82	Keyboard	3					1	1	2		BlockProc	List2	3								1	1	3							ColorProc	List3											1	BUTTON1.png	BUTTON2.PNG	BUTTON3.png	BUTTON4.png	greenstar2.png	5	1	1				{button1}	0							0	TrialProc	ColorList							1	{button1}	Button	10	33	310390	0	{Button1}	1206	311596	Color
Wisconsin	1172	3	<?xml version="1.0"?>\n<Clock xmlns:dt="urn:schemas-microsoft-com:datatypes"><Description dt:dt="string">E-Prime Primary Realtime Clock</Description><StartTime><Timestamp dt:dt="int">0</Timestamp><DateUtc dt:dt="string">2023-01-13T09:34:09Z</DateUtc></StartTime><FrequencyChanges><FrequencyChange><Frequency dt:dt="r8">10000000</Frequency><Timestamp dt:dt="r8">23457159188256</Timestamp><Current dt:dt="r8">0</Current><DateUtc dt:dt="string">2023-01-13T09:34:09Z</DateUtc></FrequencyChange></FrequencyChanges></Clock>\n	Wisconsin-1172-3	60.014	1.0.0.255	1	-1949571063	Full	3.0.3.80	3.0.3.80	01-13-2023	1/13/2023 9:34:10 AM	17:34:10	Keyboard	Keyboard	Keyboard	3.0.3.82	Keyboard	3					1	1	2		BlockProc	List2	3								1	1	3							ColorProc	List3											2	BUTTON1.png	BUTTON2.PNG	BUTTON3.png	BUTTON4.png	greencircle3.png	4	1	2				{button1}	0							0	TrialProc	ColorList							0	{button1}	Button	10	50	314189	0	{Button3}	1375	315564	Color
Wisconsin	1172	3	<?xml version="1.0"?>\n<Clock xmlns:dt="urn:schemas-microsoft-com:datatypes"><Description dt:dt="string">E-Prime Primary Realtime Clock</Description><StartTime><Timestamp dt:dt="int">0</Timestamp><DateUtc dt:dt="string">2023-01-13T09:34:09Z</DateUtc></StartTime><FrequencyChanges><FrequencyChange><Frequency dt:dt="r8">10000000</Frequency><Timestamp dt:dt="r8">23457159188256</Timestamp><Current dt:dt="r8">0</Current><DateUtc dt:dt="string">2023-01-13T09:34:09Z</DateUtc></FrequencyChange></FrequencyChanges></Clock>\n	Wisconsin-1172-3	60.014	1.0.0.255	1	-1949571063	Full	3.0.3.80	3.0.3.80	01-13-2023	1/13/2023 9:34:10 AM	17:34:10	Keyboard	Keyboard	Keyboard	3.0.3.82	Keyboard	3					1	1	2		BlockProc	List2	3								1	1	3							ColorProc	List3											3	BUTTON1.png	BUTTON2.PNG	BUTTON3.png	BUTTON4.png	redcircle3.png	8	1	3				{button3}	0							0	TrialProc	ColorList							1	{button3}	Button	10	33	318138	0	{Button3}	1010	319148	Color
Wisconsin	1172	3	<?xml version="1.0"?>\n<Clock xmlns:dt="urn:schemas-microsoft-com:datatypes"><Description dt:dt="string">E-Prime Primary Realtime Clock</Description><StartTime><Timestamp dt:dt="int">0</Timestamp><DateUtc dt:dt="string">2023-01-13T09:34:09Z</DateUtc></StartTime><FrequencyChanges><FrequencyChange><Frequency dt:dt="r8">10000000</Frequency><Timestamp dt:dt="r8">23457159188256</Timestamp><Current dt:dt="r8">0</Current><DateUtc dt:dt="string">2023-01-13T09:34:09Z</DateUtc></FrequencyChange></FrequencyChanges></Clock>\n	Wisconsin-1172-3	60.014	1.0.0.255	1	-1949571063	Full	3.0.3.80	3.0.3.80	01-13-2023	1/13/2023 9:34:10 AM	17:34:10	Keyboard	Keyboard	Keyboard	3.0.3.82	Keyboard	3					1	1	2		BlockProc	List2	3								1	1	3							ColorProc	List3											4	BUTTON1.png	BUTTON2.PNG	BUTTON3.png	BUTTON4.png	yellowstar3.png	10	1	4				{button2}	0							0	TrialProc	ColorList							1	{button2}	Button	10	33	321721	0	{Button2}	963	322684	Color
Wisconsin	1172	3	<?xml version="1.0"?>\n<Clock xmlns:dt="urn:schemas-microsoft-com:datatypes"><Description dt:dt="string">E-Prime Primary Realtime Clock</Description><StartTime><Timestamp dt:dt="int">0</Timestamp><DateUtc dt:dt="string">2023-01-13T09:34:09Z</DateUtc></StartTime><FrequencyChanges><FrequencyChange><Frequency dt:dt="r8">10000000</Frequency><Timestamp dt:dt="r8">23457159188256</Timestamp><Current dt:dt="r8">0</Current><DateUtc dt:dt="string">2023-01-13T09:34:09Z</DateUtc></FrequencyChange></FrequencyChanges></Clock>\n	Wisconsin-1172-3	60.014	1.0.0.255	1	-1949571063	Full	3.0.3.80	3.0.3.80	01-13-2023	1/13/2023 9:34:10 AM	17:34:10	Keyboard	Keyboard	Keyboard	3.0.3.82	Keyboard	3					1	1	2		BlockProc	List2	3								1	1	3							ColorProc	List3											5	BUTTON1.png	BUTTON2.PNG	BUTTON3.png	BUTTON4.png	bluecross2.png	2	1	5				{button4}	0							0	TrialProc	ColorList							1	{button4}	Button	9	33	325270	0	{Button4}	1846	327116	Color
Wisconsin	1172	3	<?xml version="1.0"?>\n<Clock xmlns:dt="urn:schemas-microsoft-com:datatypes"><Description dt:dt="string">E-Prime Primary Realtime Clock</Description><StartTime><Timestamp dt:dt="int">0</Timestamp><DateUtc dt:dt="string">2023-01-13T09:34:09Z</DateUtc></StartTime><FrequencyChanges><FrequencyChange><Frequency dt:dt="r8">10000000</Frequency><Timestamp dt:dt="r8">23457159188256</Timestamp><Current dt:dt="r8">0</Current><DateUtc dt:dt="string">2023-01-13T09:34:09Z</DateUtc></FrequencyChange></FrequencyChanges></Clock>\n	Wisconsin-1172-3	60.014	1.0.0.255	1	-1949571063	Full	3.0.3.80	3.0.3.80	01-13-2023	1/13/2023 9:34:10 AM	17:34:10	Keyboard	Keyboard	Keyboard	3.0.3.82	Keyboard	3					1	1	2		BlockProc	List2	3								1	1	3							ColorProc	List3											6	BUTTON1.png	BUTTON2.PNG	BUTTON3.png	BUTTON4.png	bluecircle1.png	1	1	6				{button4}	0							0	TrialProc	ColorList							1	{button4}	Button	10	33	329702	0	{Button4}	662	330364	Color
Wisconsin	1172	3	<?xml version="1.0"?>\n<Clock xmlns:dt="urn:schemas-microsoft-com:datatypes"><Description dt:dt="string">E-Prime Primary Realtime Clock</Description><StartTime><Timestamp dt:dt="int">0</Timestamp><DateUtc dt:dt="string">2023-01-13T09:34:09Z</DateUtc></StartTime><FrequencyChanges><FrequencyChange><Frequency dt:dt="r8">10000000</Frequency><Timestamp dt:dt="r8">23457159188256</Timestamp><Current dt:dt="r8">0</Current><DateUtc dt:dt="string">2023-01-13T09:34:09Z</DateUtc></FrequencyChange></FrequencyChanges></Clock>\n	Wisconsin-1172-3	60.014	1.0.0.255	1	-1949571063	Full	3.0.3.80	3.0.3.80	01-13-2023	1/13/2023 9:34:10 AM	17:34:10	Keyboard	Keyboard	Keyboard	3.0.3.82	Keyboard	3					1	1	2		BlockProc	List2	3								1	1	3							ColorProc	List3											7	BUTTON1.png	BUTTON2.PNG	BUTTON3.png	BUTTON4.png	bluetriangle3.png	3	1	7				{button4}	0							0	TrialProc	ColorList							1	{button4}	Button	10	50	332968	0	{Button4}	636	333604	Color
Wisconsin	1172	3	<?xml version="1.0"?>\n<Clock xmlns:dt="urn:schemas-microsoft-com:datatypes"><Description dt:dt="string">E-Prime Primary Realtime Clock</Description><StartTime><Timestamp dt:dt="int">0</Timestamp><DateUtc dt:dt="string">2023-01-13T09:34:09Z</DateUtc></StartTime><FrequencyChanges><FrequencyChange><Frequency dt:dt="r8">10000000</Frequency><Timestamp dt:dt="r8">23457159188256</Timestamp><Current dt:dt="r8">0</Current><DateUtc dt:dt="string">2023-01-13T09:34:09Z</DateUtc></FrequencyChange></FrequencyChanges></Clock>\n	Wisconsin-1172-3	60.014	1.0.0.255	1	-1949571063	Full	3.0.3.80	3.0.3.80	01-13-2023	1/13/2023 9:34:10 AM	17:34:10	Keyboard	Keyboard	Keyboard	3.0.3.82	Keyboard	3					1	1	2		BlockProc	List2	3								1	1	3							ColorProc	List3											8	BUTTON1.png	BUTTON2.PNG	BUTTON3.png	BUTTON4.png	yellowcircle1.png	9	1	8				{button2}	0							0	TrialProc	ColorList							1	{button2}	Button	12	49	336200	0	{Button2}	876	337076	Color
Wisconsin	1172	3	<?xml version="1.0"?>\n<Clock xmlns:dt="urn:schemas-microsoft-com:datatypes"><Description dt:dt="string">E-Prime Primary Realtime Clock</Description><StartTime><Timestamp dt:dt="int">0</Timestamp><DateUtc dt:dt="string">2023-01-13T09:34:09Z</DateUtc></StartTime><FrequencyChanges><FrequencyChange><Frequency dt:dt="r8">10000000</Frequency><Timestamp dt:dt="r8">23457159188256</Timestamp><Current dt:dt="r8">0</Current><DateUtc dt:dt="string">2023-01-13T09:34:09Z</DateUtc></FrequencyChange></FrequencyChanges></Clock>\n	Wisconsin-1172-3	60.014	1.0.0.255	1	-1949571063	Full	3.0.3.80	3.0.3.80	01-13-2023	1/13/2023 9:34:10 AM	17:34:10	Keyboard	Keyboard	Keyboard	3.0.3.82	Keyboard	3					1	1	2		BlockProc	List2	3								1	1	3							ColorProc	List3											9	BUTTON1.png	BUTTON2.PNG	BUTTON3.png	BUTTON4.png	greentriangle3.png	7	1	9				{button1}	0							0	TrialProc	ColorList							1	{button1}	Button	10	33	339666	0	{Button1}	994	340660	Color
Wisconsin	1172	3	<?xml version="1.0"?>\n<Clock xmlns:dt="urn:schemas-microsoft-com:datatypes"><Description dt:dt="string">E-Prime Primary Realtime Clock</Description><StartTime><Timestamp dt:dt="int">0</Timestamp><DateUtc dt:dt="string">2023-01-13T09:34:09Z</DateUtc></StartTime><FrequencyChanges><FrequencyChange><Frequency dt:dt="r8">10000000</Frequency><Timestamp dt:dt="r8">23457159188256</Timestamp><Current dt:dt="r8">0</Current><DateUtc dt:dt="string">2023-01-13T09:34:09Z</DateUtc></FrequencyChange></FrequencyChanges></Clock>\n	Wisconsin-1172-3	60.014	1.0.0.255	1	-1949571063	Full	3.0.3.80	3.0.3.80	01-13-2023	1/13/2023 9:34:10 AM	17:34:10	Keyboard	Keyboard	Keyboard	3.0.3.82	Keyboard	3					1	1	2		BlockProc	List2	3								1	1	3							ColorProc	List3											10	BUTTON1.png	BUTTON2.PNG	BUTTON3.png	BUTTON4.png	greentriangle1.png	6	1	10				{button1}	0							0	TrialProc	ColorList							1	{button1}	Button	10	33	343232	0	{Button1}	500	343732	Color
