ExperimentName	Subject	Session	Clock.Information	DataFile.Basename	Display.RefreshRate	ExperimentVersion	Group	RandomSeed	RuntimeCapabilities	RuntimeVersion	RuntimeVersionExpected	SessionDate	SessionStartDateTimeUtc	SessionTime	Slide1.DEVICE	Slide2.DEVICE	Slide3.DEVICE	StudioVersion	Welcome.DEVICE	Block	GetReady.DEVICE	List1	List1.Cycle	List1.Sample	List2	List2.Cycle	List2.Sample	PracticeReady.DEVICE	Procedure[Block]	Running[Block]	Trial	CardIMG1[Trial]	CardIMG2[Trial]	CardIMG3[Trial]	CardIMG4[Trial]	CardStim[Trial]	Category	CorrectAnswer[Trial]	List3	List3.Cycle	List3.Sample	List4	List4.Cycle	List4.Sample	PracticeList	PracticeList.Cycle	PracticeList.Sample	Procedure[Trial]	Running[Trial]	Slide4.ACC	Slide4.CRESP	Slide4.DEVICE	Slide4.DurationError	Slide4.OnsetDelay	Slide4.OnsetTime	Slide4.OnsetToOnsetTime	Slide4.RESP	Slide4.RT	Slide4.RTTime	SubTrial	CardIMG1[SubTrial]	CardIMG2[SubTrial]	CardIMG3[SubTrial]	CardIMG4[SubTrial]	CardStim[SubTrial]	ColorList	ColorList.Cycle	ColorList.Sample	ColorList2	ColorList2.Cycle	ColorList2.Sample	CorrectAnswer[SubTrial]	NonPerseverativeError	NumberList	NumberList.Cycle	NumberList.Sample	NumberList2	NumberList2.Cycle	NumberList2.Sample	PerseverativeError	Procedure[SubTrial]	Running[SubTrial]	ShapeList	ShapeList.Cycle	ShapeList.Sample	ShapeList2	ShapeList2.Cycle	ShapeList2.Sample	Slide5.ACC	Slide5.CRESP	Slide5.DEVICE	Slide5.DurationError	Slide5.OnsetDelay	Slide5.OnsetTime	Slide5.OnsetToOnsetTime	Slide5.RESP	Slide5.RT	Slide5.RTTime	TrialType
Wisconsin	1139	4	<?xml version="1.0"?>\n<Clock xmlns:dt="urn:schemas-microsoft-com:datatypes"><Description dt:dt="string">E-Prime Primary Realtime Clock</Description><StartTime><Timestamp dt:dt="int">0</Timestamp><DateUtc dt:dt="string">2022-12-10T08:40:53Z</DateUtc></StartTime><FrequencyChanges><FrequencyChange><Frequency dt:dt="r8">10000000</Frequency><Timestamp dt:dt="r8">2686620506179</Timestamp><Current dt:dt="r8">0</Current><DateUtc dt:dt="string">2022-12-10T08:40:53Z</DateUtc></FrequencyChange></FrequencyChanges></Clock>\n	Wisconsin-1139-4	60.013	1.0.0.248	1	-2026397074	Full	3.0.3.80	3.0.3.80	12-10-2022	12/10/2022 8:40:53 AM	16:40:53	Keyboard	Keyboard	Keyboard	3.0.3.82	Keyboard	1	Keyboard	1	1	1				Keyboard	Practiceploc	List1	1	Button1.png	Button2.png	Button3.png	Button4.png	Greencircle3.png	顏色	{button1}							1	1	1	PracticeTrialProc	PracticeList	1	{button1}	Button	11	50	46410	0	{Button1}	1624	48034																																								
Wisconsin	1139	4	<?xml version="1.0"?>\n<Clock xmlns:dt="urn:schemas-microsoft-com:datatypes"><Description dt:dt="string">E-Prime Primary Realtime Clock</Description><StartTime><Timestamp dt:dt="int">0</Timestamp><DateUtc dt:dt="string">2022-12-10T08:40:53Z</DateUtc></StartTime><FrequencyChanges><FrequencyChange><Frequency dt:dt="r8">10000000</Frequency><Timestamp dt:dt="r8">2686620506179</Timestamp><Current dt:dt="r8">0</Current><DateUtc dt:dt="string">2022-12-10T08:40:53Z</DateUtc></FrequencyChange></FrequencyChanges></Clock>\n	Wisconsin-1139-4	60.013	1.0.0.248	1	-2026397074	Full	3.0.3.80	3.0.3.80	12-10-2022	12/10/2022 8:40:53 AM	16:40:53	Keyboard	Keyboard	Keyboard	3.0.3.82	Keyboard	1	Keyboard	1	1	1				Keyboard	Practiceploc	List1	2	Button1.png	Button2.png	Button3.png	Button4.png	Redstar2.png	顏色	{button3}							2	1	2	PracticeTrialProc	PracticeList	0	{button3}	Button	1	50	50676	5015		0	0																																								
Wisconsin	1139	4	<?xml version="1.0"?>\n<Clock xmlns:dt="urn:schemas-microsoft-com:datatypes"><Description dt:dt="string">E-Prime Primary Realtime Clock</Description><StartTime><Timestamp dt:dt="int">0</Timestamp><DateUtc dt:dt="string">2022-12-10T08:40:53Z</DateUtc></StartTime><FrequencyChanges><FrequencyChange><Frequency dt:dt="r8">10000000</Frequency><Timestamp dt:dt="r8">2686620506179</Timestamp><Current dt:dt="r8">0</Current><DateUtc dt:dt="string">2022-12-10T08:40:53Z</DateUtc></FrequencyChange></FrequencyChanges></Clock>\n	Wisconsin-1139-4	60.013	1.0.0.248	1	-2026397074	Full	3.0.3.80	3.0.3.80	12-10-2022	12/10/2022 8:40:53 AM	16:40:53	Keyboard	Keyboard	Keyboard	3.0.3.82	Keyboard	1	Keyboard	1	1	1				Keyboard	Practiceploc	List1	3	Button1.png	Button2.png	Button3.png	Button4.png	Bluetriangle1.png	形狀	{button2}							3	1	3	PracticeTrialProc	PracticeList	1	{button2}	Button	9	50	58257	0	{Button2}	1529	59786																																								
Wisconsin	1139	4	<?xml version="1.0"?>\n<Clock xmlns:dt="urn:schemas-microsoft-com:datatypes"><Description dt:dt="string">E-Prime Primary Realtime Clock</Description><StartTime><Timestamp dt:dt="int">0</Timestamp><DateUtc dt:dt="string">2022-12-10T08:40:53Z</DateUtc></StartTime><FrequencyChanges><FrequencyChange><Frequency dt:dt="r8">10000000</Frequency><Timestamp dt:dt="r8">2686620506179</Timestamp><Current dt:dt="r8">0</Current><DateUtc dt:dt="string">2022-12-10T08:40:53Z</DateUtc></FrequencyChange></FrequencyChanges></Clock>\n	Wisconsin-1139-4	60.013	1.0.0.248	1	-2026397074	Full	3.0.3.80	3.0.3.80	12-10-2022	12/10/2022 8:40:53 AM	16:40:53	Keyboard	Keyboard	Keyboard	3.0.3.82	Keyboard	1	Keyboard	1	1	1				Keyboard	Practiceploc	List1	4	Button1.png	Button2.png	Button3.png	Button4.png	greenstar2.png	形狀	{Button4}							4	1	4	PracticeTrialProc	PracticeList	1	{Button4}	Button	10	34	62390	0	{Button4}	2292	64682																																								
Wisconsin	1139	4	<?xml version="1.0"?>\n<Clock xmlns:dt="urn:schemas-microsoft-com:datatypes"><Description dt:dt="string">E-Prime Primary Realtime Clock</Description><StartTime><Timestamp dt:dt="int">0</Timestamp><DateUtc dt:dt="string">2022-12-10T08:40:53Z</DateUtc></StartTime><FrequencyChanges><FrequencyChange><Frequency dt:dt="r8">10000000</Frequency><Timestamp dt:dt="r8">2686620506179</Timestamp><Current dt:dt="r8">0</Current><DateUtc dt:dt="string">2022-12-10T08:40:53Z</DateUtc></FrequencyChange></FrequencyChanges></Clock>\n	Wisconsin-1139-4	60.013	1.0.0.248	1	-2026397074	Full	3.0.3.80	3.0.3.80	12-10-2022	12/10/2022 8:40:53 AM	16:40:53	Keyboard	Keyboard	Keyboard	3.0.3.82	Keyboard	1	Keyboard	1	1	1				Keyboard	Practiceploc	List1	5	Button1.png	Button2.png	Button3.png	Button4.png	BlueCross4.png	圖案數目	{Button2}							5	1	5	PracticeTrialProc	PracticeList	1	{Button2}	Button	14	50	67272	0	{Button2}	1082	68354																																								
Wisconsin	1139	4	<?xml version="1.0"?>\n<Clock xmlns:dt="urn:schemas-microsoft-com:datatypes"><Description dt:dt="string">E-Prime Primary Realtime Clock</Description><StartTime><Timestamp dt:dt="int">0</Timestamp><DateUtc dt:dt="string">2022-12-10T08:40:53Z</DateUtc></StartTime><FrequencyChanges><FrequencyChange><Frequency dt:dt="r8">10000000</Frequency><Timestamp dt:dt="r8">2686620506179</Timestamp><Current dt:dt="r8">0</Current><DateUtc dt:dt="string">2022-12-10T08:40:53Z</DateUtc></FrequencyChange></FrequencyChanges></Clock>\n	Wisconsin-1139-4	60.013	1.0.0.248	1	-2026397074	Full	3.0.3.80	3.0.3.80	12-10-2022	12/10/2022 8:40:53 AM	16:40:53	Keyboard	Keyboard	Keyboard	3.0.3.82	Keyboard	1	Keyboard	1	1	1				Keyboard	Practiceploc	List1	6	Button1.png	Button2.png	Button3.png	Button4.png	yellowcircle2.png	圖案數目	{Button1}							6	1	6	PracticeTrialProc	PracticeList	1	{Button1}	Button	10	33	70937	0	{Button1}	1377	72314																																								
Wisconsin	1139	4	<?xml version="1.0"?>\n<Clock xmlns:dt="urn:schemas-microsoft-com:datatypes"><Description dt:dt="string">E-Prime Primary Realtime Clock</Description><StartTime><Timestamp dt:dt="int">0</Timestamp><DateUtc dt:dt="string">2022-12-10T08:40:53Z</DateUtc></StartTime><FrequencyChanges><FrequencyChange><Frequency dt:dt="r8">10000000</Frequency><Timestamp dt:dt="r8">2686620506179</Timestamp><Current dt:dt="r8">0</Current><DateUtc dt:dt="string">2022-12-10T08:40:53Z</DateUtc></FrequencyChange></FrequencyChanges></Clock>\n	Wisconsin-1139-4	60.013	1.0.0.248	1	-2026397074	Full	3.0.3.80	3.0.3.80	12-10-2022	12/10/2022 8:40:53 AM	16:40:53	Keyboard	Keyboard	Keyboard	3.0.3.82	Keyboard	2					2	1	1		BlockProc2	List2	1											1	1	1				ColorProc2	List4											1	BUTTON1.png	BUTTON2.PNG	BUTTON3.png	BUTTON4.png	Greencircle1.png				3	1	1	{Button1}	0							0	TrialProc	ColorList2							1	{Button1}	Button	13	50	80735	0	{Button1}	1739	82474	color
Wisconsin	1139	4	<?xml version="1.0"?>\n<Clock xmlns:dt="urn:schemas-microsoft-com:datatypes"><Description dt:dt="string">E-Prime Primary Realtime Clock</Description><StartTime><Timestamp dt:dt="int">0</Timestamp><DateUtc dt:dt="string">2022-12-10T08:40:53Z</DateUtc></StartTime><FrequencyChanges><FrequencyChange><Frequency dt:dt="r8">10000000</Frequency><Timestamp dt:dt="r8">2686620506179</Timestamp><Current dt:dt="r8">0</Current><DateUtc dt:dt="string">2022-12-10T08:40:53Z</DateUtc></FrequencyChange></FrequencyChanges></Clock>\n	Wisconsin-1139-4	60.013	1.0.0.248	1	-2026397074	Full	3.0.3.80	3.0.3.80	12-10-2022	12/10/2022 8:40:53 AM	16:40:53	Keyboard	Keyboard	Keyboard	3.0.3.82	Keyboard	2					2	1	1		BlockProc2	List2	1											1	1	1				ColorProc2	List4											2	BUTTON1.png	BUTTON2.PNG	BUTTON3.png	BUTTON4.png	yellowtriangle3.png				10	1	2	{Button2}	0							0	TrialProc	ColorList2							1	{Button2}	Button	9	33	85051	0	{Button2}	1383	86434	color
Wisconsin	1139	4	<?xml version="1.0"?>\n<Clock xmlns:dt="urn:schemas-microsoft-com:datatypes"><Description dt:dt="string">E-Prime Primary Realtime Clock</Description><StartTime><Timestamp dt:dt="int">0</Timestamp><DateUtc dt:dt="string">2022-12-10T08:40:53Z</DateUtc></StartTime><FrequencyChanges><FrequencyChange><Frequency dt:dt="r8">10000000</Frequency><Timestamp dt:dt="r8">2686620506179</Timestamp><Current dt:dt="r8">0</Current><DateUtc dt:dt="string">2022-12-10T08:40:53Z</DateUtc></FrequencyChange></FrequencyChanges></Clock>\n	Wisconsin-1139-4	60.013	1.0.0.248	1	-2026397074	Full	3.0.3.80	3.0.3.80	12-10-2022	12/10/2022 8:40:53 AM	16:40:53	Keyboard	Keyboard	Keyboard	3.0.3.82	Keyboard	2					2	1	1		BlockProc2	List2	1											1	1	1				ColorProc2	List4											3	BUTTON1.png	BUTTON2.PNG	BUTTON3.png	BUTTON4.png	bluestar3.png				2	1	3	{Button4}	0							0	TrialProc	ColorList2							1	{Button4}	Button	9	33	89016	0	{Button4}	1194	90210	color
Wisconsin	1139	4	<?xml version="1.0"?>\n<Clock xmlns:dt="urn:schemas-microsoft-com:datatypes"><Description dt:dt="string">E-Prime Primary Realtime Clock</Description><StartTime><Timestamp dt:dt="int">0</Timestamp><DateUtc dt:dt="string">2022-12-10T08:40:53Z</DateUtc></StartTime><FrequencyChanges><FrequencyChange><Frequency dt:dt="r8">10000000</Frequency><Timestamp dt:dt="r8">2686620506179</Timestamp><Current dt:dt="r8">0</Current><DateUtc dt:dt="string">2022-12-10T08:40:53Z</DateUtc></FrequencyChange></FrequencyChanges></Clock>\n	Wisconsin-1139-4	60.013	1.0.0.248	1	-2026397074	Full	3.0.3.80	3.0.3.80	12-10-2022	12/10/2022 8:40:53 AM	16:40:53	Keyboard	Keyboard	Keyboard	3.0.3.82	Keyboard	2					2	1	1		BlockProc2	List2	1											1	1	1				ColorProc2	List4											4	BUTTON1.png	BUTTON2.PNG	BUTTON3.png	BUTTON4.png	Redcircle2.png				7	1	4	{Button3}	0							0	TrialProc	ColorList2							0	{Button3}	Button	11	33	92782	0	{Button1}	2668	95450	color
Wisconsin	1139	4	<?xml version="1.0"?>\n<Clock xmlns:dt="urn:schemas-microsoft-com:datatypes"><Description dt:dt="string">E-Prime Primary Realtime Clock</Description><StartTime><Timestamp dt:dt="int">0</Timestamp><DateUtc dt:dt="string">2022-12-10T08:40:53Z</DateUtc></StartTime><FrequencyChanges><FrequencyChange><Frequency dt:dt="r8">10000000</Frequency><Timestamp dt:dt="r8">2686620506179</Timestamp><Current dt:dt="r8">0</Current><DateUtc dt:dt="string">2022-12-10T08:40:53Z</DateUtc></FrequencyChange></FrequencyChanges></Clock>\n	Wisconsin-1139-4	60.013	1.0.0.248	1	-2026397074	Full	3.0.3.80	3.0.3.80	12-10-2022	12/10/2022 8:40:53 AM	16:40:53	Keyboard	Keyboard	Keyboard	3.0.3.82	Keyboard	2					2	1	1		BlockProc2	List2	1											1	1	1				ColorProc2	List4											5	BUTTON1.png	BUTTON2.PNG	BUTTON3.png	BUTTON4.png	redstar4.png				8	1	5	{Button3}	0							0	TrialProc	ColorList2							0	{Button3}	Button	9	33	98031	0	{Button2}	747	98778	color
Wisconsin	1139	4	<?xml version="1.0"?>\n<Clock xmlns:dt="urn:schemas-microsoft-com:datatypes"><Description dt:dt="string">E-Prime Primary Realtime Clock</Description><StartTime><Timestamp dt:dt="int">0</Timestamp><DateUtc dt:dt="string">2022-12-10T08:40:53Z</DateUtc></StartTime><FrequencyChanges><FrequencyChange><Frequency dt:dt="r8">10000000</Frequency><Timestamp dt:dt="r8">2686620506179</Timestamp><Current dt:dt="r8">0</Current><DateUtc dt:dt="string">2022-12-10T08:40:53Z</DateUtc></FrequencyChange></FrequencyChanges></Clock>\n	Wisconsin-1139-4	60.013	1.0.0.248	1	-2026397074	Full	3.0.3.80	3.0.3.80	12-10-2022	12/10/2022 8:40:53 AM	16:40:53	Keyboard	Keyboard	Keyboard	3.0.3.82	Keyboard	2					2	1	1		BlockProc2	List2	1											1	1	1				ColorProc2	List4											6	BUTTON1.png	BUTTON2.PNG	BUTTON3.png	BUTTON4.png	greencross4.png				4	1	6	{Button1}	0							0	TrialProc	ColorList2							1	{Button1}	Button	10	33	101363	0	{Button1}	1199	102562	color
Wisconsin	1139	4	<?xml version="1.0"?>\n<Clock xmlns:dt="urn:schemas-microsoft-com:datatypes"><Description dt:dt="string">E-Prime Primary Realtime Clock</Description><StartTime><Timestamp dt:dt="int">0</Timestamp><DateUtc dt:dt="string">2022-12-10T08:40:53Z</DateUtc></StartTime><FrequencyChanges><FrequencyChange><Frequency dt:dt="r8">10000000</Frequency><Timestamp dt:dt="r8">2686620506179</Timestamp><Current dt:dt="r8">0</Current><DateUtc dt:dt="string">2022-12-10T08:40:53Z</DateUtc></FrequencyChange></FrequencyChanges></Clock>\n	Wisconsin-1139-4	60.013	1.0.0.248	1	-2026397074	Full	3.0.3.80	3.0.3.80	12-10-2022	12/10/2022 8:40:53 AM	16:40:53	Keyboard	Keyboard	Keyboard	3.0.3.82	Keyboard	2					2	1	1		BlockProc2	List2	1											1	1	1				ColorProc2	List4											7	BUTTON1.png	BUTTON2.PNG	BUTTON3.png	BUTTON4.png	greentriangle2.png				6	1	7	{Button1}	0							0	TrialProc	ColorList2							1	{Button1}	Button	10	33	105146	0	{Button1}	912	106058	color
Wisconsin	1139	4	<?xml version="1.0"?>\n<Clock xmlns:dt="urn:schemas-microsoft-com:datatypes"><Description dt:dt="string">E-Prime Primary Realtime Clock</Description><StartTime><Timestamp dt:dt="int">0</Timestamp><DateUtc dt:dt="string">2022-12-10T08:40:53Z</DateUtc></StartTime><FrequencyChanges><FrequencyChange><Frequency dt:dt="r8">10000000</Frequency><Timestamp dt:dt="r8">2686620506179</Timestamp><Current dt:dt="r8">0</Current><DateUtc dt:dt="string">2022-12-10T08:40:53Z</DateUtc></FrequencyChange></FrequencyChanges></Clock>\n	Wisconsin-1139-4	60.013	1.0.0.248	1	-2026397074	Full	3.0.3.80	3.0.3.80	12-10-2022	12/10/2022 8:40:53 AM	16:40:53	Keyboard	Keyboard	Keyboard	3.0.3.82	Keyboard	2					2	1	1		BlockProc2	List2	1											1	1	1				ColorProc2	List4											8	BUTTON1.png	BUTTON2.PNG	BUTTON3.png	BUTTON4.png	bluecross1.png				1	1	8	{Button4}	0							0	TrialProc	ColorList2							1	{Button4}	Button	10	33	108645	0	{Button4}	1093	109738	color
Wisconsin	1139	4	<?xml version="1.0"?>\n<Clock xmlns:dt="urn:schemas-microsoft-com:datatypes"><Description dt:dt="string">E-Prime Primary Realtime Clock</Description><StartTime><Timestamp dt:dt="int">0</Timestamp><DateUtc dt:dt="string">2022-12-10T08:40:53Z</DateUtc></StartTime><FrequencyChanges><FrequencyChange><Frequency dt:dt="r8">10000000</Frequency><Timestamp dt:dt="r8">2686620506179</Timestamp><Current dt:dt="r8">0</Current><DateUtc dt:dt="string">2022-12-10T08:40:53Z</DateUtc></FrequencyChange></FrequencyChanges></Clock>\n	Wisconsin-1139-4	60.013	1.0.0.248	1	-2026397074	Full	3.0.3.80	3.0.3.80	12-10-2022	12/10/2022 8:40:53 AM	16:40:53	Keyboard	Keyboard	Keyboard	3.0.3.82	Keyboard	2					2	1	1		BlockProc2	List2	1											1	1	1				ColorProc2	List4											9	BUTTON1.png	BUTTON2.PNG	BUTTON3.png	BUTTON4.png	greenstar4.png				5	1	9	{Button1}	0							0	TrialProc	ColorList2							1	{Button1}	Button	10	33	112311	0	{Button1}	1779	114090	color
Wisconsin	1139	4	<?xml version="1.0"?>\n<Clock xmlns:dt="urn:schemas-microsoft-com:datatypes"><Description dt:dt="string">E-Prime Primary Realtime Clock</Description><StartTime><Timestamp dt:dt="int">0</Timestamp><DateUtc dt:dt="string">2022-12-10T08:40:53Z</DateUtc></StartTime><FrequencyChanges><FrequencyChange><Frequency dt:dt="r8">10000000</Frequency><Timestamp dt:dt="r8">2686620506179</Timestamp><Current dt:dt="r8">0</Current><DateUtc dt:dt="string">2022-12-10T08:40:53Z</DateUtc></FrequencyChange></FrequencyChanges></Clock>\n	Wisconsin-1139-4	60.013	1.0.0.248	1	-2026397074	Full	3.0.3.80	3.0.3.80	12-10-2022	12/10/2022 8:40:53 AM	16:40:53	Keyboard	Keyboard	Keyboard	3.0.3.82	Keyboard	2					2	1	1		BlockProc2	List2	1											1	1	1				ColorProc2	List4											10	BUTTON1.png	BUTTON2.PNG	BUTTON3.png	BUTTON4.png	yellowcircle2.png				9	1	10	{Button2}	0							0	TrialProc	ColorList2							1	{Button2}	Button	10	33	116676	0	{Button2}	806	117482	color
Wisconsin	1139	4	<?xml version="1.0"?>\n<Clock xmlns:dt="urn:schemas-microsoft-com:datatypes"><Description dt:dt="string">E-Prime Primary Realtime Clock</Description><StartTime><Timestamp dt:dt="int">0</Timestamp><DateUtc dt:dt="string">2022-12-10T08:40:53Z</DateUtc></StartTime><FrequencyChanges><FrequencyChange><Frequency dt:dt="r8">10000000</Frequency><Timestamp dt:dt="r8">2686620506179</Timestamp><Current dt:dt="r8">0</Current><DateUtc dt:dt="string">2022-12-10T08:40:53Z</DateUtc></FrequencyChange></FrequencyChanges></Clock>\n	Wisconsin-1139-4	60.013	1.0.0.248	1	-2026397074	Full	3.0.3.80	3.0.3.80	12-10-2022	12/10/2022 8:40:53 AM	16:40:53	Keyboard	Keyboard	Keyboard	3.0.3.82	Keyboard	2					2	1	1		BlockProc2	List2	2											2	1	2				ShapeProc2	List4											1	Button1.png	Button2.png	Button3.png	Button4.png	Yellowtriangle1.png							{button2}	0							0	TrialProc	ShapeList2				10	1	1	1	{button2}	Button	9	33	120059	0	{Button2}	671	120730	Shape
Wisconsin	1139	4	<?xml version="1.0"?>\n<Clock xmlns:dt="urn:schemas-microsoft-com:datatypes"><Description dt:dt="string">E-Prime Primary Realtime Clock</Description><StartTime><Timestamp dt:dt="int">0</Timestamp><DateUtc dt:dt="string">2022-12-10T08:40:53Z</DateUtc></StartTime><FrequencyChanges><FrequencyChange><Frequency dt:dt="r8">10000000</Frequency><Timestamp dt:dt="r8">2686620506179</Timestamp><Current dt:dt="r8">0</Current><DateUtc dt:dt="string">2022-12-10T08:40:53Z</DateUtc></FrequencyChange></FrequencyChanges></Clock>\n	Wisconsin-1139-4	60.013	1.0.0.248	1	-2026397074	Full	3.0.3.80	3.0.3.80	12-10-2022	12/10/2022 8:40:53 AM	16:40:53	Keyboard	Keyboard	Keyboard	3.0.3.82	Keyboard	2					2	1	1		BlockProc2	List2	2											2	1	2				ShapeProc2	List4											2	Button1.png	Button2.png	Button3.png	Button4.png	Bluetriangle2.png							{button2}	0							0	TrialProc	ShapeList2				2	1	2	0	{button2}	Button	9	50	123325	0	{Button4}	1917	125242	Shape
Wisconsin	1139	4	<?xml version="1.0"?>\n<Clock xmlns:dt="urn:schemas-microsoft-com:datatypes"><Description dt:dt="string">E-Prime Primary Realtime Clock</Description><StartTime><Timestamp dt:dt="int">0</Timestamp><DateUtc dt:dt="string">2022-12-10T08:40:53Z</DateUtc></StartTime><FrequencyChanges><FrequencyChange><Frequency dt:dt="r8">10000000</Frequency><Timestamp dt:dt="r8">2686620506179</Timestamp><Current dt:dt="r8">0</Current><DateUtc dt:dt="string">2022-12-10T08:40:53Z</DateUtc></FrequencyChange></FrequencyChanges></Clock>\n	Wisconsin-1139-4	60.013	1.0.0.248	1	-2026397074	Full	3.0.3.80	3.0.3.80	12-10-2022	12/10/2022 8:40:53 AM	16:40:53	Keyboard	Keyboard	Keyboard	3.0.3.82	Keyboard	2					2	1	1		BlockProc2	List2	2											2	1	2				ShapeProc2	List4											3	Button1.png	Button2.png	Button3.png	Button4.png	Bluecircle3.png							{button1}	0							0	TrialProc	ShapeList2				1	1	3	1	{button1}	Button	8	34	127824	0	{Button1}	1066	128890	Shape
Wisconsin	1139	4	<?xml version="1.0"?>\n<Clock xmlns:dt="urn:schemas-microsoft-com:datatypes"><Description dt:dt="string">E-Prime Primary Realtime Clock</Description><StartTime><Timestamp dt:dt="int">0</Timestamp><DateUtc dt:dt="string">2022-12-10T08:40:53Z</DateUtc></StartTime><FrequencyChanges><FrequencyChange><Frequency dt:dt="r8">10000000</Frequency><Timestamp dt:dt="r8">2686620506179</Timestamp><Current dt:dt="r8">0</Current><DateUtc dt:dt="string">2022-12-10T08:40:53Z</DateUtc></FrequencyChange></FrequencyChanges></Clock>\n	Wisconsin-1139-4	60.013	1.0.0.248	1	-2026397074	Full	3.0.3.80	3.0.3.80	12-10-2022	12/10/2022 8:40:53 AM	16:40:53	Keyboard	Keyboard	Keyboard	3.0.3.82	Keyboard	2					2	1	1		BlockProc2	List2	2											2	1	2				ShapeProc2	List4											4	Button1.png	Button2.png	Button3.png	Button4.png	yellowcross4.png							{button3}	0							0	TrialProc	ShapeList2				8	1	4	1	{button3}	Button	16	66	131489	0	{Button3}	2041	133530	Shape
Wisconsin	1139	4	<?xml version="1.0"?>\n<Clock xmlns:dt="urn:schemas-microsoft-com:datatypes"><Description dt:dt="string">E-Prime Primary Realtime Clock</Description><StartTime><Timestamp dt:dt="int">0</Timestamp><DateUtc dt:dt="string">2022-12-10T08:40:53Z</DateUtc></StartTime><FrequencyChanges><FrequencyChange><Frequency dt:dt="r8">10000000</Frequency><Timestamp dt:dt="r8">2686620506179</Timestamp><Current dt:dt="r8">0</Current><DateUtc dt:dt="string">2022-12-10T08:40:53Z</DateUtc></FrequencyChange></FrequencyChanges></Clock>\n	Wisconsin-1139-4	60.013	1.0.0.248	1	-2026397074	Full	3.0.3.80	3.0.3.80	12-10-2022	12/10/2022 8:40:53 AM	16:40:53	Keyboard	Keyboard	Keyboard	3.0.3.82	Keyboard	2					2	1	1		BlockProc2	List2	2											2	1	2				ShapeProc2	List4											5	Button1.png	Button2.png	Button3.png	Button4.png	Redtriangle3.png							{button2}	0							0	TrialProc	ShapeList2				7	1	5	1	{button2}	Button	9	33	136105	0	{Button2}	737	136842	Shape
Wisconsin	1139	4	<?xml version="1.0"?>\n<Clock xmlns:dt="urn:schemas-microsoft-com:datatypes"><Description dt:dt="string">E-Prime Primary Realtime Clock</Description><StartTime><Timestamp dt:dt="int">0</Timestamp><DateUtc dt:dt="string">2022-12-10T08:40:53Z</DateUtc></StartTime><FrequencyChanges><FrequencyChange><Frequency dt:dt="r8">10000000</Frequency><Timestamp dt:dt="r8">2686620506179</Timestamp><Current dt:dt="r8">0</Current><DateUtc dt:dt="string">2022-12-10T08:40:53Z</DateUtc></FrequencyChange></FrequencyChanges></Clock>\n	Wisconsin-1139-4	60.013	1.0.0.248	1	-2026397074	Full	3.0.3.80	3.0.3.80	12-10-2022	12/10/2022 8:40:53 AM	16:40:53	Keyboard	Keyboard	Keyboard	3.0.3.82	Keyboard	2					2	1	1		BlockProc2	List2	2											2	1	2				ShapeProc2	List4											6	Button1.png	Button2.png	Button3.png	Button4.png	Yellowstar2.png							{button4}	0							0	TrialProc	ShapeList2				9	1	6	1	{button4}	Button	9	33	139421	0	{Button4}	1333	140754	Shape
Wisconsin	1139	4	<?xml version="1.0"?>\n<Clock xmlns:dt="urn:schemas-microsoft-com:datatypes"><Description dt:dt="string">E-Prime Primary Realtime Clock</Description><StartTime><Timestamp dt:dt="int">0</Timestamp><DateUtc dt:dt="string">2022-12-10T08:40:53Z</DateUtc></StartTime><FrequencyChanges><FrequencyChange><Frequency dt:dt="r8">10000000</Frequency><Timestamp dt:dt="r8">2686620506179</Timestamp><Current dt:dt="r8">0</Current><DateUtc dt:dt="string">2022-12-10T08:40:53Z</DateUtc></FrequencyChange></FrequencyChanges></Clock>\n	Wisconsin-1139-4	60.013	1.0.0.248	1	-2026397074	Full	3.0.3.80	3.0.3.80	12-10-2022	12/10/2022 8:40:53 AM	16:40:53	Keyboard	Keyboard	Keyboard	3.0.3.82	Keyboard	2					2	1	1		BlockProc2	List2	2											2	1	2				ShapeProc2	List4											7	Button1.png	Button2.png	Button3.png	Button4.png	Greenstar3.png							{button4}	0							0	TrialProc	ShapeList2				3	1	7	1	{button4}	Button	2	50	143353	0	{Button4}	1457	144810	Shape
Wisconsin	1139	4	<?xml version="1.0"?>\n<Clock xmlns:dt="urn:schemas-microsoft-com:datatypes"><Description dt:dt="string">E-Prime Primary Realtime Clock</Description><StartTime><Timestamp dt:dt="int">0</Timestamp><DateUtc dt:dt="string">2022-12-10T08:40:53Z</DateUtc></StartTime><FrequencyChanges><FrequencyChange><Frequency dt:dt="r8">10000000</Frequency><Timestamp dt:dt="r8">2686620506179</Timestamp><Current dt:dt="r8">0</Current><DateUtc dt:dt="string">2022-12-10T08:40:53Z</DateUtc></FrequencyChange></FrequencyChanges></Clock>\n	Wisconsin-1139-4	60.013	1.0.0.248	1	-2026397074	Full	3.0.3.80	3.0.3.80	12-10-2022	12/10/2022 8:40:53 AM	16:40:53	Keyboard	Keyboard	Keyboard	3.0.3.82	Keyboard	2					2	1	1		BlockProc2	List2	2											2	1	2				ShapeProc2	List4											8	Button1.png	Button2.png	Button3.png	Button4.png	Redstar3.png							{button4}	0							0	TrialProc	ShapeList2				6	1	8	0	{button4}	Button	10	33	147385	0	{Button3}	1489	148874	Shape
Wisconsin	1139	4	<?xml version="1.0"?>\n<Clock xmlns:dt="urn:schemas-microsoft-com:datatypes"><Description dt:dt="string">E-Prime Primary Realtime Clock</Description><StartTime><Timestamp dt:dt="int">0</Timestamp><DateUtc dt:dt="string">2022-12-10T08:40:53Z</DateUtc></StartTime><FrequencyChanges><FrequencyChange><Frequency dt:dt="r8">10000000</Frequency><Timestamp dt:dt="r8">2686620506179</Timestamp><Current dt:dt="r8">0</Current><DateUtc dt:dt="string">2022-12-10T08:40:53Z</DateUtc></FrequencyChange></FrequencyChanges></Clock>\n	Wisconsin-1139-4	60.013	1.0.0.248	1	-2026397074	Full	3.0.3.80	3.0.3.80	12-10-2022	12/10/2022 8:40:53 AM	16:40:53	Keyboard	Keyboard	Keyboard	3.0.3.82	Keyboard	2					2	1	1		BlockProc2	List2	2											2	1	2				ShapeProc2	List4											9	Button1.png	Button2.png	Button3.png	Button4.png	redcircle1.png							{button1}	0							0	TrialProc	ShapeList2				4	1	9	1	{button1}	Button	1	50	151468	0	{Button1}	886	152354	Shape
Wisconsin	1139	4	<?xml version="1.0"?>\n<Clock xmlns:dt="urn:schemas-microsoft-com:datatypes"><Description dt:dt="string">E-Prime Primary Realtime Clock</Description><StartTime><Timestamp dt:dt="int">0</Timestamp><DateUtc dt:dt="string">2022-12-10T08:40:53Z</DateUtc></StartTime><FrequencyChanges><FrequencyChange><Frequency dt:dt="r8">10000000</Frequency><Timestamp dt:dt="r8">2686620506179</Timestamp><Current dt:dt="r8">0</Current><DateUtc dt:dt="string">2022-12-10T08:40:53Z</DateUtc></FrequencyChange></FrequencyChanges></Clock>\n	Wisconsin-1139-4	60.013	1.0.0.248	1	-2026397074	Full	3.0.3.80	3.0.3.80	12-10-2022	12/10/2022 8:40:53 AM	16:40:53	Keyboard	Keyboard	Keyboard	3.0.3.82	Keyboard	2					2	1	1		BlockProc2	List2	2											2	1	2				ShapeProc2	List4											10	Button1.png	Button2.png	Button3.png	Button4.png	Redcross2.png							{button3}	0							0	TrialProc	ShapeList2				5	1	10	1	{button3}	Button	9	33	154934	0	{Button3}	1588	156522	Shape
Wisconsin	1139	4	<?xml version="1.0"?>\n<Clock xmlns:dt="urn:schemas-microsoft-com:datatypes"><Description dt:dt="string">E-Prime Primary Realtime Clock</Description><StartTime><Timestamp dt:dt="int">0</Timestamp><DateUtc dt:dt="string">2022-12-10T08:40:53Z</DateUtc></StartTime><FrequencyChanges><FrequencyChange><Frequency dt:dt="r8">10000000</Frequency><Timestamp dt:dt="r8">2686620506179</Timestamp><Current dt:dt="r8">0</Current><DateUtc dt:dt="string">2022-12-10T08:40:53Z</DateUtc></FrequencyChange></FrequencyChanges></Clock>\n	Wisconsin-1139-4	60.013	1.0.0.248	1	-2026397074	Full	3.0.3.80	3.0.3.80	12-10-2022	12/10/2022 8:40:53 AM	16:40:53	Keyboard	Keyboard	Keyboard	3.0.3.82	Keyboard	2					2	1	1		BlockProc2	List2	3											3	1	3				NumberProc2	List4											1	Button1.png	Button2.png	Button3.png	Button4.png	Bluecross3.png							{button3}	0				1	1	1	0	TrialProc	NumberList2							0	{button3}	Button	9	33	159099	0	{Button4}	1559	160658	number
Wisconsin	1139	4	<?xml version="1.0"?>\n<Clock xmlns:dt="urn:schemas-microsoft-com:datatypes"><Description dt:dt="string">E-Prime Primary Realtime Clock</Description><StartTime><Timestamp dt:dt="int">0</Timestamp><DateUtc dt:dt="string">2022-12-10T08:40:53Z</DateUtc></StartTime><FrequencyChanges><FrequencyChange><Frequency dt:dt="r8">10000000</Frequency><Timestamp dt:dt="r8">2686620506179</Timestamp><Current dt:dt="r8">0</Current><DateUtc dt:dt="string">2022-12-10T08:40:53Z</DateUtc></FrequencyChange></FrequencyChanges></Clock>\n	Wisconsin-1139-4	60.013	1.0.0.248	1	-2026397074	Full	3.0.3.80	3.0.3.80	12-10-2022	12/10/2022 8:40:53 AM	16:40:53	Keyboard	Keyboard	Keyboard	3.0.3.82	Keyboard	2					2	1	1		BlockProc2	List2	3											3	1	3				NumberProc2	List4											2	Button1.png	Button2.png	Button3.png	Button4.png	Bluestar4.png							{button2}	0				2	1	2	0	TrialProc	NumberList2							1	{button2}	Button	11	33	163248	0	{Button2}	658	163906	number
Wisconsin	1139	4	<?xml version="1.0"?>\n<Clock xmlns:dt="urn:schemas-microsoft-com:datatypes"><Description dt:dt="string">E-Prime Primary Realtime Clock</Description><StartTime><Timestamp dt:dt="int">0</Timestamp><DateUtc dt:dt="string">2022-12-10T08:40:53Z</DateUtc></StartTime><FrequencyChanges><FrequencyChange><Frequency dt:dt="r8">10000000</Frequency><Timestamp dt:dt="r8">2686620506179</Timestamp><Current dt:dt="r8">0</Current><DateUtc dt:dt="string">2022-12-10T08:40:53Z</DateUtc></FrequencyChange></FrequencyChanges></Clock>\n	Wisconsin-1139-4	60.013	1.0.0.248	1	-2026397074	Full	3.0.3.80	3.0.3.80	12-10-2022	12/10/2022 8:40:53 AM	16:40:53	Keyboard	Keyboard	Keyboard	3.0.3.82	Keyboard	2					2	1	1		BlockProc2	List2	3											3	1	3				NumberProc2	List4											3	Button1.png	Button2.png	Button3.png	Button4.png	Bluetriangle4.png							{button2}	0				3	1	3	0	TrialProc	NumberList2							1	{button2}	Button	9	33	166481	0	{Button2}	617	167098	number
Wisconsin	1139	4	<?xml version="1.0"?>\n<Clock xmlns:dt="urn:schemas-microsoft-com:datatypes"><Description dt:dt="string">E-Prime Primary Realtime Clock</Description><StartTime><Timestamp dt:dt="int">0</Timestamp><DateUtc dt:dt="string">2022-12-10T08:40:53Z</DateUtc></StartTime><FrequencyChanges><FrequencyChange><Frequency dt:dt="r8">10000000</Frequency><Timestamp dt:dt="r8">2686620506179</Timestamp><Current dt:dt="r8">0</Current><DateUtc dt:dt="string">2022-12-10T08:40:53Z</DateUtc></FrequencyChange></FrequencyChanges></Clock>\n	Wisconsin-1139-4	60.013	1.0.0.248	1	-2026397074	Full	3.0.3.80	3.0.3.80	12-10-2022	12/10/2022 8:40:53 AM	16:40:53	Keyboard	Keyboard	Keyboard	3.0.3.82	Keyboard	2					2	1	1		BlockProc2	List2	3											3	1	3				NumberProc2	List4											4	Button1.png	Button2.png	Button3.png	Button4.png	Greencross2.png							{button1}	0				4	1	4	0	TrialProc	NumberList2							1	{button1}	Button	10	33	169663	0	{Button1}	1195	170858	number
Wisconsin	1139	4	<?xml version="1.0"?>\n<Clock xmlns:dt="urn:schemas-microsoft-com:datatypes"><Description dt:dt="string">E-Prime Primary Realtime Clock</Description><StartTime><Timestamp dt:dt="int">0</Timestamp><DateUtc dt:dt="string">2022-12-10T08:40:53Z</DateUtc></StartTime><FrequencyChanges><FrequencyChange><Frequency dt:dt="r8">10000000</Frequency><Timestamp dt:dt="r8">2686620506179</Timestamp><Current dt:dt="r8">0</Current><DateUtc dt:dt="string">2022-12-10T08:40:53Z</DateUtc></FrequencyChange></FrequencyChanges></Clock>\n	Wisconsin-1139-4	60.013	1.0.0.248	1	-2026397074	Full	3.0.3.80	3.0.3.80	12-10-2022	12/10/2022 8:40:53 AM	16:40:53	Keyboard	Keyboard	Keyboard	3.0.3.82	Keyboard	2					2	1	1		BlockProc2	List2	3											3	1	3				NumberProc2	List4											5	Button1.png	Button2.png	Button3.png	Button4.png	Greenstar1.png							{button4}	0				5	1	5	0	TrialProc	NumberList2							0	{button4}	Button	9	33	173446	0	{Button1}	1372	174818	number
Wisconsin	1139	4	<?xml version="1.0"?>\n<Clock xmlns:dt="urn:schemas-microsoft-com:datatypes"><Description dt:dt="string">E-Prime Primary Realtime Clock</Description><StartTime><Timestamp dt:dt="int">0</Timestamp><DateUtc dt:dt="string">2022-12-10T08:40:53Z</DateUtc></StartTime><FrequencyChanges><FrequencyChange><Frequency dt:dt="r8">10000000</Frequency><Timestamp dt:dt="r8">2686620506179</Timestamp><Current dt:dt="r8">0</Current><DateUtc dt:dt="string">2022-12-10T08:40:53Z</DateUtc></FrequencyChange></FrequencyChanges></Clock>\n	Wisconsin-1139-4	60.013	1.0.0.248	1	-2026397074	Full	3.0.3.80	3.0.3.80	12-10-2022	12/10/2022 8:40:53 AM	16:40:53	Keyboard	Keyboard	Keyboard	3.0.3.82	Keyboard	2					2	1	1		BlockProc2	List2	3											3	1	3				NumberProc2	List4											6	Button1.png	Button2.png	Button3.png	Button4.png	Redstar1.png							{button4}	0				6	1	6	0	TrialProc	NumberList2							1	{button4}	Button	9	33	177395	0	{Button4}	1303	178698	number
Wisconsin	1139	4	<?xml version="1.0"?>\n<Clock xmlns:dt="urn:schemas-microsoft-com:datatypes"><Description dt:dt="string">E-Prime Primary Realtime Clock</Description><StartTime><Timestamp dt:dt="int">0</Timestamp><DateUtc dt:dt="string">2022-12-10T08:40:53Z</DateUtc></StartTime><FrequencyChanges><FrequencyChange><Frequency dt:dt="r8">10000000</Frequency><Timestamp dt:dt="r8">2686620506179</Timestamp><Current dt:dt="r8">0</Current><DateUtc dt:dt="string">2022-12-10T08:40:53Z</DateUtc></FrequencyChange></FrequencyChanges></Clock>\n	Wisconsin-1139-4	60.013	1.0.0.248	1	-2026397074	Full	3.0.3.80	3.0.3.80	12-10-2022	12/10/2022 8:40:53 AM	16:40:53	Keyboard	Keyboard	Keyboard	3.0.3.82	Keyboard	2					2	1	1		BlockProc2	List2	3											3	1	3				NumberProc2	List4											7	Button1.png	Button2.png	Button3.png	Button4.png	Redtriangle2.png							{button1}	0				7	1	7	0	TrialProc	NumberList2							0	{button1}	Button	10	33	181277	0	{Button2}	1653	182930	number
Wisconsin	1139	4	<?xml version="1.0"?>\n<Clock xmlns:dt="urn:schemas-microsoft-com:datatypes"><Description dt:dt="string">E-Prime Primary Realtime Clock</Description><StartTime><Timestamp dt:dt="int">0</Timestamp><DateUtc dt:dt="string">2022-12-10T08:40:53Z</DateUtc></StartTime><FrequencyChanges><FrequencyChange><Frequency dt:dt="r8">10000000</Frequency><Timestamp dt:dt="r8">2686620506179</Timestamp><Current dt:dt="r8">0</Current><DateUtc dt:dt="string">2022-12-10T08:40:53Z</DateUtc></FrequencyChange></FrequencyChanges></Clock>\n	Wisconsin-1139-4	60.013	1.0.0.248	1	-2026397074	Full	3.0.3.80	3.0.3.80	12-10-2022	12/10/2022 8:40:53 AM	16:40:53	Keyboard	Keyboard	Keyboard	3.0.3.82	Keyboard	2					2	1	1		BlockProc2	List2	3											3	1	3				NumberProc2	List4											8	Button1.png	Button2.png	Button3.png	Button4.png	yellowcircle4.png							{button2}	0				8	1	8	0	TrialProc	NumberList2							1	{button2}	Button	10	33	185509	0	{Button2}	589	186098	number
Wisconsin	1139	4	<?xml version="1.0"?>\n<Clock xmlns:dt="urn:schemas-microsoft-com:datatypes"><Description dt:dt="string">E-Prime Primary Realtime Clock</Description><StartTime><Timestamp dt:dt="int">0</Timestamp><DateUtc dt:dt="string">2022-12-10T08:40:53Z</DateUtc></StartTime><FrequencyChanges><FrequencyChange><Frequency dt:dt="r8">10000000</Frequency><Timestamp dt:dt="r8">2686620506179</Timestamp><Current dt:dt="r8">0</Current><DateUtc dt:dt="string">2022-12-10T08:40:53Z</DateUtc></FrequencyChange></FrequencyChanges></Clock>\n	Wisconsin-1139-4	60.013	1.0.0.248	1	-2026397074	Full	3.0.3.80	3.0.3.80	12-10-2022	12/10/2022 8:40:53 AM	16:40:53	Keyboard	Keyboard	Keyboard	3.0.3.82	Keyboard	2					2	1	1		BlockProc2	List2	3											3	1	3				NumberProc2	List4											9	Button1.png	Button2.png	Button3.png	Button4.png	Yellowcross2.png							{button1}	0				9	1	9	0	TrialProc	NumberList2							0	{button1}	Button	10	33	188675	0	{Button3}	967	189642	number
Wisconsin	1139	4	<?xml version="1.0"?>\n<Clock xmlns:dt="urn:schemas-microsoft-com:datatypes"><Description dt:dt="string">E-Prime Primary Realtime Clock</Description><StartTime><Timestamp dt:dt="int">0</Timestamp><DateUtc dt:dt="string">2022-12-10T08:40:53Z</DateUtc></StartTime><FrequencyChanges><FrequencyChange><Frequency dt:dt="r8">10000000</Frequency><Timestamp dt:dt="r8">2686620506179</Timestamp><Current dt:dt="r8">0</Current><DateUtc dt:dt="string">2022-12-10T08:40:53Z</DateUtc></FrequencyChange></FrequencyChanges></Clock>\n	Wisconsin-1139-4	60.013	1.0.0.248	1	-2026397074	Full	3.0.3.80	3.0.3.80	12-10-2022	12/10/2022 8:40:53 AM	16:40:53	Keyboard	Keyboard	Keyboard	3.0.3.82	Keyboard	2					2	1	1		BlockProc2	List2	3											3	1	3				NumberProc2	List4											10	Button1.png	Button2.png	Button3.png	Button4.png	Yellowtriangle2.png							{button3}	0				10	1	10	0	TrialProc	NumberList2							0	{button3}	Button	10	33	192224	0	{Button2}	634	192858	number
Wisconsin	1139	4	<?xml version="1.0"?>\n<Clock xmlns:dt="urn:schemas-microsoft-com:datatypes"><Description dt:dt="string">E-Prime Primary Realtime Clock</Description><StartTime><Timestamp dt:dt="int">0</Timestamp><DateUtc dt:dt="string">2022-12-10T08:40:53Z</DateUtc></StartTime><FrequencyChanges><FrequencyChange><Frequency dt:dt="r8">10000000</Frequency><Timestamp dt:dt="r8">2686620506179</Timestamp><Current dt:dt="r8">0</Current><DateUtc dt:dt="string">2022-12-10T08:40:53Z</DateUtc></FrequencyChange></FrequencyChanges></Clock>\n	Wisconsin-1139-4	60.013	1.0.0.248	1	-2026397074	Full	3.0.3.80	3.0.3.80	12-10-2022	12/10/2022 8:40:53 AM	16:40:53	Keyboard	Keyboard	Keyboard	3.0.3.82	Keyboard	3					1	1	2		BlockProc	List2	1								1	1	1							ColorProc	List3											1	BUTTON1.png	BUTTON2.PNG	BUTTON3.png	BUTTON4.png	bluetriangle3.png	3	1	1				{button4}	0							0	TrialProc	ColorList							0	{button4}	Button	10	33	195440	0	{Button3}	1258	196698	Color
Wisconsin	1139	4	<?xml version="1.0"?>\n<Clock xmlns:dt="urn:schemas-microsoft-com:datatypes"><Description dt:dt="string">E-Prime Primary Realtime Clock</Description><StartTime><Timestamp dt:dt="int">0</Timestamp><DateUtc dt:dt="string">2022-12-10T08:40:53Z</DateUtc></StartTime><FrequencyChanges><FrequencyChange><Frequency dt:dt="r8">10000000</Frequency><Timestamp dt:dt="r8">2686620506179</Timestamp><Current dt:dt="r8">0</Current><DateUtc dt:dt="string">2022-12-10T08:40:53Z</DateUtc></FrequencyChange></FrequencyChanges></Clock>\n	Wisconsin-1139-4	60.013	1.0.0.248	1	-2026397074	Full	3.0.3.80	3.0.3.80	12-10-2022	12/10/2022 8:40:53 AM	16:40:53	Keyboard	Keyboard	Keyboard	3.0.3.82	Keyboard	3					1	1	2		BlockProc	List2	1								1	1	1							ColorProc	List3											2	BUTTON1.png	BUTTON2.PNG	BUTTON3.png	BUTTON4.png	greencircle3.png	4	1	2				{button1}	0							0	TrialProc	ColorList							1	{button1}	Button	10	33	199273	0	{Button1}	1001	200274	Color
Wisconsin	1139	4	<?xml version="1.0"?>\n<Clock xmlns:dt="urn:schemas-microsoft-com:datatypes"><Description dt:dt="string">E-Prime Primary Realtime Clock</Description><StartTime><Timestamp dt:dt="int">0</Timestamp><DateUtc dt:dt="string">2022-12-10T08:40:53Z</DateUtc></StartTime><FrequencyChanges><FrequencyChange><Frequency dt:dt="r8">10000000</Frequency><Timestamp dt:dt="r8">2686620506179</Timestamp><Current dt:dt="r8">0</Current><DateUtc dt:dt="string">2022-12-10T08:40:53Z</DateUtc></FrequencyChange></FrequencyChanges></Clock>\n	Wisconsin-1139-4	60.013	1.0.0.248	1	-2026397074	Full	3.0.3.80	3.0.3.80	12-10-2022	12/10/2022 8:40:53 AM	16:40:53	Keyboard	Keyboard	Keyboard	3.0.3.82	Keyboard	3					1	1	2		BlockProc	List2	1								1	1	1							ColorProc	List3											3	BUTTON1.png	BUTTON2.PNG	BUTTON3.png	BUTTON4.png	redcircle3.png	8	1	3				{button3}	0							0	TrialProc	ColorList							1	{button3}	Button	2	33	202855	0	{Button3}	1419	204274	Color
Wisconsin	1139	4	<?xml version="1.0"?>\n<Clock xmlns:dt="urn:schemas-microsoft-com:datatypes"><Description dt:dt="string">E-Prime Primary Realtime Clock</Description><StartTime><Timestamp dt:dt="int">0</Timestamp><DateUtc dt:dt="string">2022-12-10T08:40:53Z</DateUtc></StartTime><FrequencyChanges><FrequencyChange><Frequency dt:dt="r8">10000000</Frequency><Timestamp dt:dt="r8">2686620506179</Timestamp><Current dt:dt="r8">0</Current><DateUtc dt:dt="string">2022-12-10T08:40:53Z</DateUtc></FrequencyChange></FrequencyChanges></Clock>\n	Wisconsin-1139-4	60.013	1.0.0.248	1	-2026397074	Full	3.0.3.80	3.0.3.80	12-10-2022	12/10/2022 8:40:53 AM	16:40:53	Keyboard	Keyboard	Keyboard	3.0.3.82	Keyboard	3					1	1	2		BlockProc	List2	1								1	1	1							ColorProc	List3											4	BUTTON1.png	BUTTON2.PNG	BUTTON3.png	BUTTON4.png	greentriangle1.png	6	1	4				{button1}	0							0	TrialProc	ColorList							1	{button1}	Button	10	33	206854	0	{Button1}	1372	208226	Color
Wisconsin	1139	4	<?xml version="1.0"?>\n<Clock xmlns:dt="urn:schemas-microsoft-com:datatypes"><Description dt:dt="string">E-Prime Primary Realtime Clock</Description><StartTime><Timestamp dt:dt="int">0</Timestamp><DateUtc dt:dt="string">2022-12-10T08:40:53Z</DateUtc></StartTime><FrequencyChanges><FrequencyChange><Frequency dt:dt="r8">10000000</Frequency><Timestamp dt:dt="r8">2686620506179</Timestamp><Current dt:dt="r8">0</Current><DateUtc dt:dt="string">2022-12-10T08:40:53Z</DateUtc></FrequencyChange></FrequencyChanges></Clock>\n	Wisconsin-1139-4	60.013	1.0.0.248	1	-2026397074	Full	3.0.3.80	3.0.3.80	12-10-2022	12/10/2022 8:40:53 AM	16:40:53	Keyboard	Keyboard	Keyboard	3.0.3.82	Keyboard	3					1	1	2		BlockProc	List2	1								1	1	1							ColorProc	List3											5	BUTTON1.png	BUTTON2.PNG	BUTTON3.png	BUTTON4.png	greentriangle3.png	7	1	5				{button1}	0							0	TrialProc	ColorList							1	{button1}	Button	10	33	210803	0	{Button1}	1351	212154	Color
Wisconsin	1139	4	<?xml version="1.0"?>\n<Clock xmlns:dt="urn:schemas-microsoft-com:datatypes"><Description dt:dt="string">E-Prime Primary Realtime Clock</Description><StartTime><Timestamp dt:dt="int">0</Timestamp><DateUtc dt:dt="string">2022-12-10T08:40:53Z</DateUtc></StartTime><FrequencyChanges><FrequencyChange><Frequency dt:dt="r8">10000000</Frequency><Timestamp dt:dt="r8">2686620506179</Timestamp><Current dt:dt="r8">0</Current><DateUtc dt:dt="string">2022-12-10T08:40:53Z</DateUtc></FrequencyChange></FrequencyChanges></Clock>\n	Wisconsin-1139-4	60.013	1.0.0.248	1	-2026397074	Full	3.0.3.80	3.0.3.80	12-10-2022	12/10/2022 8:40:53 AM	16:40:53	Keyboard	Keyboard	Keyboard	3.0.3.82	Keyboard	3					1	1	2		BlockProc	List2	1								1	1	1							ColorProc	List3											6	BUTTON1.png	BUTTON2.PNG	BUTTON3.png	BUTTON4.png	bluecircle1.png	1	1	6				{button4}	0							0	TrialProc	ColorList							1	{button4}	Button	10	49	214752	0	{Button4}	1098	215850	Color
Wisconsin	1139	4	<?xml version="1.0"?>\n<Clock xmlns:dt="urn:schemas-microsoft-com:datatypes"><Description dt:dt="string">E-Prime Primary Realtime Clock</Description><StartTime><Timestamp dt:dt="int">0</Timestamp><DateUtc dt:dt="string">2022-12-10T08:40:53Z</DateUtc></StartTime><FrequencyChanges><FrequencyChange><Frequency dt:dt="r8">10000000</Frequency><Timestamp dt:dt="r8">2686620506179</Timestamp><Current dt:dt="r8">0</Current><DateUtc dt:dt="string">2022-12-10T08:40:53Z</DateUtc></FrequencyChange></FrequencyChanges></Clock>\n	Wisconsin-1139-4	60.013	1.0.0.248	1	-2026397074	Full	3.0.3.80	3.0.3.80	12-10-2022	12/10/2022 8:40:53 AM	16:40:53	Keyboard	Keyboard	Keyboard	3.0.3.82	Keyboard	3					1	1	2		BlockProc	List2	1								1	1	1							ColorProc	List3											7	BUTTON1.png	BUTTON2.PNG	BUTTON3.png	BUTTON4.png	bluecross2.png	2	1	7				{button4}	0							0	TrialProc	ColorList							1	{button4}	Button	9	33	218435	0	{Button4}	1263	219698	Color
Wisconsin	1139	4	<?xml version="1.0"?>\n<Clock xmlns:dt="urn:schemas-microsoft-com:datatypes"><Description dt:dt="string">E-Prime Primary Realtime Clock</Description><StartTime><Timestamp dt:dt="int">0</Timestamp><DateUtc dt:dt="string">2022-12-10T08:40:53Z</DateUtc></StartTime><FrequencyChanges><FrequencyChange><Frequency dt:dt="r8">10000000</Frequency><Timestamp dt:dt="r8">2686620506179</Timestamp><Current dt:dt="r8">0</Current><DateUtc dt:dt="string">2022-12-10T08:40:53Z</DateUtc></FrequencyChange></FrequencyChanges></Clock>\n	Wisconsin-1139-4	60.013	1.0.0.248	1	-2026397074	Full	3.0.3.80	3.0.3.80	12-10-2022	12/10/2022 8:40:53 AM	16:40:53	Keyboard	Keyboard	Keyboard	3.0.3.82	Keyboard	3					1	1	2		BlockProc	List2	1								1	1	1							ColorProc	List3											8	BUTTON1.png	BUTTON2.PNG	BUTTON3.png	BUTTON4.png	greenstar2.png	5	1	8				{button1}	0							0	TrialProc	ColorList							1	{button1}	Button	10	33	222284	0	{Button1}	1166	223450	Color
Wisconsin	1139	4	<?xml version="1.0"?>\n<Clock xmlns:dt="urn:schemas-microsoft-com:datatypes"><Description dt:dt="string">E-Prime Primary Realtime Clock</Description><StartTime><Timestamp dt:dt="int">0</Timestamp><DateUtc dt:dt="string">2022-12-10T08:40:53Z</DateUtc></StartTime><FrequencyChanges><FrequencyChange><Frequency dt:dt="r8">10000000</Frequency><Timestamp dt:dt="r8">2686620506179</Timestamp><Current dt:dt="r8">0</Current><DateUtc dt:dt="string">2022-12-10T08:40:53Z</DateUtc></FrequencyChange></FrequencyChanges></Clock>\n	Wisconsin-1139-4	60.013	1.0.0.248	1	-2026397074	Full	3.0.3.80	3.0.3.80	12-10-2022	12/10/2022 8:40:53 AM	16:40:53	Keyboard	Keyboard	Keyboard	3.0.3.82	Keyboard	3					1	1	2		BlockProc	List2	1								1	1	1							ColorProc	List3											9	BUTTON1.png	BUTTON2.PNG	BUTTON3.png	BUTTON4.png	yellowcircle1.png	9	1	9				{button2}	0							0	TrialProc	ColorList							1	{button2}	Button	10	33	226016	0	{Button2}	1002	227018	Color
Wisconsin	1139	4	<?xml version="1.0"?>\n<Clock xmlns:dt="urn:schemas-microsoft-com:datatypes"><Description dt:dt="string">E-Prime Primary Realtime Clock</Description><StartTime><Timestamp dt:dt="int">0</Timestamp><DateUtc dt:dt="string">2022-12-10T08:40:53Z</DateUtc></StartTime><FrequencyChanges><FrequencyChange><Frequency dt:dt="r8">10000000</Frequency><Timestamp dt:dt="r8">2686620506179</Timestamp><Current dt:dt="r8">0</Current><DateUtc dt:dt="string">2022-12-10T08:40:53Z</DateUtc></FrequencyChange></FrequencyChanges></Clock>\n	Wisconsin-1139-4	60.013	1.0.0.248	1	-2026397074	Full	3.0.3.80	3.0.3.80	12-10-2022	12/10/2022 8:40:53 AM	16:40:53	Keyboard	Keyboard	Keyboard	3.0.3.82	Keyboard	3					1	1	2		BlockProc	List2	1								1	1	1							ColorProc	List3											10	BUTTON1.png	BUTTON2.PNG	BUTTON3.png	BUTTON4.png	yellowstar3.png	10	1	10				{button2}	0							0	TrialProc	ColorList							1	{button2}	Button	9	33	229599	0	{Button2}	1123	230722	Color
Wisconsin	1139	4	<?xml version="1.0"?>\n<Clock xmlns:dt="urn:schemas-microsoft-com:datatypes"><Description dt:dt="string">E-Prime Primary Realtime Clock</Description><StartTime><Timestamp dt:dt="int">0</Timestamp><DateUtc dt:dt="string">2022-12-10T08:40:53Z</DateUtc></StartTime><FrequencyChanges><FrequencyChange><Frequency dt:dt="r8">10000000</Frequency><Timestamp dt:dt="r8">2686620506179</Timestamp><Current dt:dt="r8">0</Current><DateUtc dt:dt="string">2022-12-10T08:40:53Z</DateUtc></FrequencyChange></FrequencyChanges></Clock>\n	Wisconsin-1139-4	60.013	1.0.0.248	1	-2026397074	Full	3.0.3.80	3.0.3.80	12-10-2022	12/10/2022 8:40:53 AM	16:40:53	Keyboard	Keyboard	Keyboard	3.0.3.82	Keyboard	3					1	1	2		BlockProc	List2	2								2	1	2							ShapeProc	List3											1	Button1.png	Button2.png	Button3.png	Button4.png	Redcross1.png							{Button3}	0							0	TrialProc	ShapeList	5	1	1				1	{Button3}	Button	9	33	233298	0	{Button3}	752	234050	Shape
Wisconsin	1139	4	<?xml version="1.0"?>\n<Clock xmlns:dt="urn:schemas-microsoft-com:datatypes"><Description dt:dt="string">E-Prime Primary Realtime Clock</Description><StartTime><Timestamp dt:dt="int">0</Timestamp><DateUtc dt:dt="string">2022-12-10T08:40:53Z</DateUtc></StartTime><FrequencyChanges><FrequencyChange><Frequency dt:dt="r8">10000000</Frequency><Timestamp dt:dt="r8">2686620506179</Timestamp><Current dt:dt="r8">0</Current><DateUtc dt:dt="string">2022-12-10T08:40:53Z</DateUtc></FrequencyChange></FrequencyChanges></Clock>\n	Wisconsin-1139-4	60.013	1.0.0.248	1	-2026397074	Full	3.0.3.80	3.0.3.80	12-10-2022	12/10/2022 8:40:53 AM	16:40:53	Keyboard	Keyboard	Keyboard	3.0.3.82	Keyboard	3					1	1	2		BlockProc	List2	2								2	1	2							ShapeProc	List3											2	Button1.png	Button2.png	Button3.png	Button4.png	Yellowstar1.png							{Button4}	0							0	TrialProc	ShapeList	9	1	2				0	{Button4}	Button	10	33	236630	0	{Button2}	1324	237954	Shape
Wisconsin	1139	4	<?xml version="1.0"?>\n<Clock xmlns:dt="urn:schemas-microsoft-com:datatypes"><Description dt:dt="string">E-Prime Primary Realtime Clock</Description><StartTime><Timestamp dt:dt="int">0</Timestamp><DateUtc dt:dt="string">2022-12-10T08:40:53Z</DateUtc></StartTime><FrequencyChanges><FrequencyChange><Frequency dt:dt="r8">10000000</Frequency><Timestamp dt:dt="r8">2686620506179</Timestamp><Current dt:dt="r8">0</Current><DateUtc dt:dt="string">2022-12-10T08:40:53Z</DateUtc></FrequencyChange></FrequencyChanges></Clock>\n	Wisconsin-1139-4	60.013	1.0.0.248	1	-2026397074	Full	3.0.3.80	3.0.3.80	12-10-2022	12/10/2022 8:40:53 AM	16:40:53	Keyboard	Keyboard	Keyboard	3.0.3.82	Keyboard	3					1	1	2		BlockProc	List2	2								2	1	2							ShapeProc	List3											3	Button1.png	Button2.png	Button3.png	Button4.png	Redcross4.png							{Button3}	0							0	TrialProc	ShapeList	6	1	3				0	{Button3}	Button	2	33	240529	0	{Button2}	1121	241650	Shape
Wisconsin	1139	4	<?xml version="1.0"?>\n<Clock xmlns:dt="urn:schemas-microsoft-com:datatypes"><Description dt:dt="string">E-Prime Primary Realtime Clock</Description><StartTime><Timestamp dt:dt="int">0</Timestamp><DateUtc dt:dt="string">2022-12-10T08:40:53Z</DateUtc></StartTime><FrequencyChanges><FrequencyChange><Frequency dt:dt="r8">10000000</Frequency><Timestamp dt:dt="r8">2686620506179</Timestamp><Current dt:dt="r8">0</Current><DateUtc dt:dt="string">2022-12-10T08:40:53Z</DateUtc></FrequencyChange></FrequencyChanges></Clock>\n	Wisconsin-1139-4	60.013	1.0.0.248	1	-2026397074	Full	3.0.3.80	3.0.3.80	12-10-2022	12/10/2022 8:40:53 AM	16:40:53	Keyboard	Keyboard	Keyboard	3.0.3.82	Keyboard	3					1	1	2		BlockProc	List2	2								2	1	2							ShapeProc	List3											4	Button1.png	Button2.png	Button3.png	Button4.png	Yellowstar4.png							{Button4}	0							0	TrialProc	ShapeList	10	1	4				1	{Button4}	Button	10	33	244228	0	{Button4}	1974	246202	Shape
Wisconsin	1139	4	<?xml version="1.0"?>\n<Clock xmlns:dt="urn:schemas-microsoft-com:datatypes"><Description dt:dt="string">E-Prime Primary Realtime Clock</Description><StartTime><Timestamp dt:dt="int">0</Timestamp><DateUtc dt:dt="string">2022-12-10T08:40:53Z</DateUtc></StartTime><FrequencyChanges><FrequencyChange><Frequency dt:dt="r8">10000000</Frequency><Timestamp dt:dt="r8">2686620506179</Timestamp><Current dt:dt="r8">0</Current><DateUtc dt:dt="string">2022-12-10T08:40:53Z</DateUtc></FrequencyChange></FrequencyChanges></Clock>\n	Wisconsin-1139-4	60.013	1.0.0.248	1	-2026397074	Full	3.0.3.80	3.0.3.80	12-10-2022	12/10/2022 8:40:53 AM	16:40:53	Keyboard	Keyboard	Keyboard	3.0.3.82	Keyboard	3					1	1	2		BlockProc	List2	2								2	1	2							ShapeProc	List3											5	Button1.png	Button2.png	Button3.png	Button4.png	yellowcircle3.png							{Button1}	0							0	TrialProc	ShapeList	8	1	5				1	{Button1}	Button	10	33	248777	0	{Button1}	1353	250130	Shape
Wisconsin	1139	4	<?xml version="1.0"?>\n<Clock xmlns:dt="urn:schemas-microsoft-com:datatypes"><Description dt:dt="string">E-Prime Primary Realtime Clock</Description><StartTime><Timestamp dt:dt="int">0</Timestamp><DateUtc dt:dt="string">2022-12-10T08:40:53Z</DateUtc></StartTime><FrequencyChanges><FrequencyChange><Frequency dt:dt="r8">10000000</Frequency><Timestamp dt:dt="r8">2686620506179</Timestamp><Current dt:dt="r8">0</Current><DateUtc dt:dt="string">2022-12-10T08:40:53Z</DateUtc></FrequencyChange></FrequencyChanges></Clock>\n	Wisconsin-1139-4	60.013	1.0.0.248	1	-2026397074	Full	3.0.3.80	3.0.3.80	12-10-2022	12/10/2022 8:40:53 AM	16:40:53	Keyboard	Keyboard	Keyboard	3.0.3.82	Keyboard	3					1	1	2		BlockProc	List2	2								2	1	2							ShapeProc	List3											6	Button1.png	Button2.png	Button3.png	Button4.png	Redtriangle1.png							{Button2}	0							0	TrialProc	ShapeList	7	1	6				0	{Button2}	Button	9	33	252710	0	{Button3}	1620	254330	Shape
Wisconsin	1139	4	<?xml version="1.0"?>\n<Clock xmlns:dt="urn:schemas-microsoft-com:datatypes"><Description dt:dt="string">E-Prime Primary Realtime Clock</Description><StartTime><Timestamp dt:dt="int">0</Timestamp><DateUtc dt:dt="string">2022-12-10T08:40:53Z</DateUtc></StartTime><FrequencyChanges><FrequencyChange><Frequency dt:dt="r8">10000000</Frequency><Timestamp dt:dt="r8">2686620506179</Timestamp><Current dt:dt="r8">0</Current><DateUtc dt:dt="string">2022-12-10T08:40:53Z</DateUtc></FrequencyChange></FrequencyChanges></Clock>\n	Wisconsin-1139-4	60.013	1.0.0.248	1	-2026397074	Full	3.0.3.80	3.0.3.80	12-10-2022	12/10/2022 8:40:53 AM	16:40:53	Keyboard	Keyboard	Keyboard	3.0.3.82	Keyboard	3					1	1	2		BlockProc	List2	2								2	1	2							ShapeProc	List3											7	Button1.png	Button2.png	Button3.png	Button4.png	Greencross1.png							{Button3}	0							0	TrialProc	ShapeList	3	1	7				0	{Button3}	Button	10	33	256909	0	{Button4}	1773	258682	Shape
Wisconsin	1139	4	<?xml version="1.0"?>\n<Clock xmlns:dt="urn:schemas-microsoft-com:datatypes"><Description dt:dt="string">E-Prime Primary Realtime Clock</Description><StartTime><Timestamp dt:dt="int">0</Timestamp><DateUtc dt:dt="string">2022-12-10T08:40:53Z</DateUtc></StartTime><FrequencyChanges><FrequencyChange><Frequency dt:dt="r8">10000000</Frequency><Timestamp dt:dt="r8">2686620506179</Timestamp><Current dt:dt="r8">0</Current><DateUtc dt:dt="string">2022-12-10T08:40:53Z</DateUtc></FrequencyChange></FrequencyChanges></Clock>\n	Wisconsin-1139-4	60.013	1.0.0.248	1	-2026397074	Full	3.0.3.80	3.0.3.80	12-10-2022	12/10/2022 8:40:53 AM	16:40:53	Keyboard	Keyboard	Keyboard	3.0.3.82	Keyboard	3					1	1	2		BlockProc	List2	2								2	1	2							ShapeProc	List3											8	Button1.png	Button2.png	Button3.png	Button4.png	Bluecross4.png							{Button3}	0							0	TrialProc	ShapeList	2	1	8				1	{Button3}	Button	1	33	261258	0	{Button3}	1872	263130	Shape
Wisconsin	1139	4	<?xml version="1.0"?>\n<Clock xmlns:dt="urn:schemas-microsoft-com:datatypes"><Description dt:dt="string">E-Prime Primary Realtime Clock</Description><StartTime><Timestamp dt:dt="int">0</Timestamp><DateUtc dt:dt="string">2022-12-10T08:40:53Z</DateUtc></StartTime><FrequencyChanges><FrequencyChange><Frequency dt:dt="r8">10000000</Frequency><Timestamp dt:dt="r8">2686620506179</Timestamp><Current dt:dt="r8">0</Current><DateUtc dt:dt="string">2022-12-10T08:40:53Z</DateUtc></FrequencyChange></FrequencyChanges></Clock>\n	Wisconsin-1139-4	60.013	1.0.0.248	1	-2026397074	Full	3.0.3.80	3.0.3.80	12-10-2022	12/10/2022 8:40:53 AM	16:40:53	Keyboard	Keyboard	Keyboard	3.0.3.82	Keyboard	3					1	1	2		BlockProc	List2	2								2	1	2							ShapeProc	List3											9	Button1.png	Button2.png	Button3.png	Button4.png	Bluecircle2.png							{Button1}	0							0	TrialProc	ShapeList	1	1	9				1	{Button1}	Button	9	33	265706	0	{Button1}	1072	266778	Shape
Wisconsin	1139	4	<?xml version="1.0"?>\n<Clock xmlns:dt="urn:schemas-microsoft-com:datatypes"><Description dt:dt="string">E-Prime Primary Realtime Clock</Description><StartTime><Timestamp dt:dt="int">0</Timestamp><DateUtc dt:dt="string">2022-12-10T08:40:53Z</DateUtc></StartTime><FrequencyChanges><FrequencyChange><Frequency dt:dt="r8">10000000</Frequency><Timestamp dt:dt="r8">2686620506179</Timestamp><Current dt:dt="r8">0</Current><DateUtc dt:dt="string">2022-12-10T08:40:53Z</DateUtc></FrequencyChange></FrequencyChanges></Clock>\n	Wisconsin-1139-4	60.013	1.0.0.248	1	-2026397074	Full	3.0.3.80	3.0.3.80	12-10-2022	12/10/2022 8:40:53 AM	16:40:53	Keyboard	Keyboard	Keyboard	3.0.3.82	Keyboard	3					1	1	2		BlockProc	List2	2								2	1	2							ShapeProc	List3											10	Button1.png	Button2.png	Button3.png	Button4.png	Greentriangle4.png							{Button2}	0							0	TrialProc	ShapeList	4	1	10				0	{Button2}	Button	10	33	269356	0	{Button1}	1534	270890	Shape
Wisconsin	1139	4	<?xml version="1.0"?>\n<Clock xmlns:dt="urn:schemas-microsoft-com:datatypes"><Description dt:dt="string">E-Prime Primary Realtime Clock</Description><StartTime><Timestamp dt:dt="int">0</Timestamp><DateUtc dt:dt="string">2022-12-10T08:40:53Z</DateUtc></StartTime><FrequencyChanges><FrequencyChange><Frequency dt:dt="r8">10000000</Frequency><Timestamp dt:dt="r8">2686620506179</Timestamp><Current dt:dt="r8">0</Current><DateUtc dt:dt="string">2022-12-10T08:40:53Z</DateUtc></FrequencyChange></FrequencyChanges></Clock>\n	Wisconsin-1139-4	60.013	1.0.0.248	1	-2026397074	Full	3.0.3.80	3.0.3.80	12-10-2022	12/10/2022 8:40:53 AM	16:40:53	Keyboard	Keyboard	Keyboard	3.0.3.82	Keyboard	3					1	1	2		BlockProc	List2	3								3	1	3							NumberProc	List3											1	Button1.png	Button2.png	Button3.png	Button4.png	Yellowcross1.png							{Button4}	0	9	1	1				0	TrialProc	NumberList							0	{Button4}	Button	13	33	273471	0	{Button3}	1243	274714	number
Wisconsin	1139	4	<?xml version="1.0"?>\n<Clock xmlns:dt="urn:schemas-microsoft-com:datatypes"><Description dt:dt="string">E-Prime Primary Realtime Clock</Description><StartTime><Timestamp dt:dt="int">0</Timestamp><DateUtc dt:dt="string">2022-12-10T08:40:53Z</DateUtc></StartTime><FrequencyChanges><FrequencyChange><Frequency dt:dt="r8">10000000</Frequency><Timestamp dt:dt="r8">2686620506179</Timestamp><Current dt:dt="r8">0</Current><DateUtc dt:dt="string">2022-12-10T08:40:53Z</DateUtc></FrequencyChange></FrequencyChanges></Clock>\n	Wisconsin-1139-4	60.013	1.0.0.248	1	-2026397074	Full	3.0.3.80	3.0.3.80	12-10-2022	12/10/2022 8:40:53 AM	16:40:53	Keyboard	Keyboard	Keyboard	3.0.3.82	Keyboard	3					1	1	2		BlockProc	List2	3								3	1	3							NumberProc	List3											2	Button1.png	Button2.png	Button3.png	Button4.png	Bluetriangle1.png							{Button4}	0	3	1	2				0	TrialProc	NumberList							1	{Button4}	Button	2	33	277287	0	{Button4}	1819	279106	number
Wisconsin	1139	4	<?xml version="1.0"?>\n<Clock xmlns:dt="urn:schemas-microsoft-com:datatypes"><Description dt:dt="string">E-Prime Primary Realtime Clock</Description><StartTime><Timestamp dt:dt="int">0</Timestamp><DateUtc dt:dt="string">2022-12-10T08:40:53Z</DateUtc></StartTime><FrequencyChanges><FrequencyChange><Frequency dt:dt="r8">10000000</Frequency><Timestamp dt:dt="r8">2686620506179</Timestamp><Current dt:dt="r8">0</Current><DateUtc dt:dt="string">2022-12-10T08:40:53Z</DateUtc></FrequencyChange></FrequencyChanges></Clock>\n	Wisconsin-1139-4	60.013	1.0.0.248	1	-2026397074	Full	3.0.3.80	3.0.3.80	12-10-2022	12/10/2022 8:40:53 AM	16:40:53	Keyboard	Keyboard	Keyboard	3.0.3.82	Keyboard	3					1	1	2		BlockProc	List2	3								3	1	3							NumberProc	List3											3	Button1.png	Button2.png	Button3.png	Button4.png	Bluecircle4.png							{Button2}	0	1	1	3				0	TrialProc	NumberList							0	{Button2}	Button	10	33	281686	0	{Button1}	1764	283450	number
Wisconsin	1139	4	<?xml version="1.0"?>\n<Clock xmlns:dt="urn:schemas-microsoft-com:datatypes"><Description dt:dt="string">E-Prime Primary Realtime Clock</Description><StartTime><Timestamp dt:dt="int">0</Timestamp><DateUtc dt:dt="string">2022-12-10T08:40:53Z</DateUtc></StartTime><FrequencyChanges><FrequencyChange><Frequency dt:dt="r8">10000000</Frequency><Timestamp dt:dt="r8">2686620506179</Timestamp><Current dt:dt="r8">0</Current><DateUtc dt:dt="string">2022-12-10T08:40:53Z</DateUtc></FrequencyChange></FrequencyChanges></Clock>\n	Wisconsin-1139-4	60.013	1.0.0.248	1	-2026397074	Full	3.0.3.80	3.0.3.80	12-10-2022	12/10/2022 8:40:53 AM	16:40:53	Keyboard	Keyboard	Keyboard	3.0.3.82	Keyboard	3					1	1	2		BlockProc	List2	3								3	1	3							NumberProc	List3											4	Button1.png	Button2.png	Button3.png	Button4.png	Greencircle4.png							{Button2}	0	4	1	4				0	TrialProc	NumberList							0	{Button2}	Button	1	33	286035	0	{Button1}	1279	287314	number
Wisconsin	1139	4	<?xml version="1.0"?>\n<Clock xmlns:dt="urn:schemas-microsoft-com:datatypes"><Description dt:dt="string">E-Prime Primary Realtime Clock</Description><StartTime><Timestamp dt:dt="int">0</Timestamp><DateUtc dt:dt="string">2022-12-10T08:40:53Z</DateUtc></StartTime><FrequencyChanges><FrequencyChange><Frequency dt:dt="r8">10000000</Frequency><Timestamp dt:dt="r8">2686620506179</Timestamp><Current dt:dt="r8">0</Current><DateUtc dt:dt="string">2022-12-10T08:40:53Z</DateUtc></FrequencyChange></FrequencyChanges></Clock>\n	Wisconsin-1139-4	60.013	1.0.0.248	1	-2026397074	Full	3.0.3.80	3.0.3.80	12-10-2022	12/10/2022 8:40:53 AM	16:40:53	Keyboard	Keyboard	Keyboard	3.0.3.82	Keyboard	3					1	1	2		BlockProc	List2	3								3	1	3							NumberProc	List3											5	Button1.png	Button2.png	Button3.png	Button4.png	Yellowcross3.png							{Button3}	0	10	1	5				0	TrialProc	NumberList							1	{Button3}	Button	9	33	289901	0	{Button3}	997	290898	number
Wisconsin	1139	4	<?xml version="1.0"?>\n<Clock xmlns:dt="urn:schemas-microsoft-com:datatypes"><Description dt:dt="string">E-Prime Primary Realtime Clock</Description><StartTime><Timestamp dt:dt="int">0</Timestamp><DateUtc dt:dt="string">2022-12-10T08:40:53Z</DateUtc></StartTime><FrequencyChanges><FrequencyChange><Frequency dt:dt="r8">10000000</Frequency><Timestamp dt:dt="r8">2686620506179</Timestamp><Current dt:dt="r8">0</Current><DateUtc dt:dt="string">2022-12-10T08:40:53Z</DateUtc></FrequencyChange></FrequencyChanges></Clock>\n	Wisconsin-1139-4	60.013	1.0.0.248	1	-2026397074	Full	3.0.3.80	3.0.3.80	12-10-2022	12/10/2022 8:40:53 AM	16:40:53	Keyboard	Keyboard	Keyboard	3.0.3.82	Keyboard	3					1	1	2		BlockProc	List2	3								3	1	3							NumberProc	List3											6	Button1.png	Button2.png	Button3.png	Button4.png	Redcircle4.png							{Button2}	0	6	1	6				0	TrialProc	NumberList							0	{Button2}	Button	10	50	293500	0	{Button1}	1526	295026	number
Wisconsin	1139	4	<?xml version="1.0"?>\n<Clock xmlns:dt="urn:schemas-microsoft-com:datatypes"><Description dt:dt="string">E-Prime Primary Realtime Clock</Description><StartTime><Timestamp dt:dt="int">0</Timestamp><DateUtc dt:dt="string">2022-12-10T08:40:53Z</DateUtc></StartTime><FrequencyChanges><FrequencyChange><Frequency dt:dt="r8">10000000</Frequency><Timestamp dt:dt="r8">2686620506179</Timestamp><Current dt:dt="r8">0</Current><DateUtc dt:dt="string">2022-12-10T08:40:53Z</DateUtc></FrequencyChange></FrequencyChanges></Clock>\n	Wisconsin-1139-4	60.013	1.0.0.248	1	-2026397074	Full	3.0.3.80	3.0.3.80	12-10-2022	12/10/2022 8:40:53 AM	16:40:53	Keyboard	Keyboard	Keyboard	3.0.3.82	Keyboard	3					1	1	2		BlockProc	List2	3								3	1	3							NumberProc	List3											7	Button1.png	Button2.png	Button3.png	Button4.png	Redtriangle4.png							{Button2}	0	8	1	7				0	TrialProc	NumberList							0	{Button2}	Button	2	49	297615	0	{Button3}	1355	298970	number
Wisconsin	1139	4	<?xml version="1.0"?>\n<Clock xmlns:dt="urn:schemas-microsoft-com:datatypes"><Description dt:dt="string">E-Prime Primary Realtime Clock</Description><StartTime><Timestamp dt:dt="int">0</Timestamp><DateUtc dt:dt="string">2022-12-10T08:40:53Z</DateUtc></StartTime><FrequencyChanges><FrequencyChange><Frequency dt:dt="r8">10000000</Frequency><Timestamp dt:dt="r8">2686620506179</Timestamp><Current dt:dt="r8">0</Current><DateUtc dt:dt="string">2022-12-10T08:40:53Z</DateUtc></FrequencyChange></FrequencyChanges></Clock>\n	Wisconsin-1139-4	60.013	1.0.0.248	1	-2026397074	Full	3.0.3.80	3.0.3.80	12-10-2022	12/10/2022 8:40:53 AM	16:40:53	Keyboard	Keyboard	Keyboard	3.0.3.82	Keyboard	3					1	1	2		BlockProc	List2	3								3	1	3							NumberProc	List3											8	Button1.png	Button2.png	Button3.png	Button4.png	Redstar2.png							{Button1}	0	7	1	8				0	TrialProc	NumberList							0	{Button1}	Button	1	33	301548	0	{Button4}	1974	303522	number
Wisconsin	1139	4	<?xml version="1.0"?>\n<Clock xmlns:dt="urn:schemas-microsoft-com:datatypes"><Description dt:dt="string">E-Prime Primary Realtime Clock</Description><StartTime><Timestamp dt:dt="int">0</Timestamp><DateUtc dt:dt="string">2022-12-10T08:40:53Z</DateUtc></StartTime><FrequencyChanges><FrequencyChange><Frequency dt:dt="r8">10000000</Frequency><Timestamp dt:dt="r8">2686620506179</Timestamp><Current dt:dt="r8">0</Current><DateUtc dt:dt="string">2022-12-10T08:40:53Z</DateUtc></FrequencyChange></FrequencyChanges></Clock>\n	Wisconsin-1139-4	60.013	1.0.0.248	1	-2026397074	Full	3.0.3.80	3.0.3.80	12-10-2022	12/10/2022 8:40:53 AM	16:40:53	Keyboard	Keyboard	Keyboard	3.0.3.82	Keyboard	3					1	1	2		BlockProc	List2	3								3	1	3							NumberProc	List3											9	Button1.png	Button2.png	Button3.png	Button4.png	Greencross3.png							{Button3}	0	5	1	9				0	TrialProc	NumberList							1	{Button3}	Button	1	33	306097	0	{Button3}	1089	307186	number
Wisconsin	1139	4	<?xml version="1.0"?>\n<Clock xmlns:dt="urn:schemas-microsoft-com:datatypes"><Description dt:dt="string">E-Prime Primary Realtime Clock</Description><StartTime><Timestamp dt:dt="int">0</Timestamp><DateUtc dt:dt="string">2022-12-10T08:40:53Z</DateUtc></StartTime><FrequencyChanges><FrequencyChange><Frequency dt:dt="r8">10000000</Frequency><Timestamp dt:dt="r8">2686620506179</Timestamp><Current dt:dt="r8">0</Current><DateUtc dt:dt="string">2022-12-10T08:40:53Z</DateUtc></FrequencyChange></FrequencyChanges></Clock>\n	Wisconsin-1139-4	60.013	1.0.0.248	1	-2026397074	Full	3.0.3.80	3.0.3.80	12-10-2022	12/10/2022 8:40:53 AM	16:40:53	Keyboard	Keyboard	Keyboard	3.0.3.82	Keyboard	3					1	1	2		BlockProc	List2	3								3	1	3							NumberProc	List3											10	Button1.png	Button2.png	Button3.png	Button4.png	Bluestar2.png							{Button1}	0	2	1	10				0	TrialProc	NumberList							1	{Button1}	Button	10	33	309762	0	{Button1}	1336	311098	number
