ExperimentName	Subject	Session	Clock.Information	DataFile.Basename	Display.RefreshRate	ExperimentVersion	Group	RandomSeed	RuntimeCapabilities	RuntimeVersion	RuntimeVersionExpected	SessionDate	SessionStartDateTimeUtc	SessionTime	StudioVersion	Block	List1	List1.Cycle	List1.Sample	List3	List3.Cycle	List3.Sample	Procedure[Block]	Running[Block]	Trial	CardIMG1[Trial]	CardIMG2[Trial]	CardIMG3[Trial]	CardIMG4[Trial]	CardStim[Trial]	Category	CorrectAnswer[Trial]	FeedbackDisplay2.ACC	FeedbackDisplay2.CRESP	FeedbackDisplay2.DurationError	FeedbackDisplay2.OnsetDelay	FeedbackDisplay2.OnsetTime	FeedbackDisplay2.OnsetToOnsetTime	FeedbackDisplay2.RESP	FeedbackDisplay2.RT	FeedbackDisplay2.RTTime	List2	List2.Cycle	List2.Sample	List4	List4.Cycle	List4.Sample	PracticeList	PracticeList.Cycle	PracticeList.Sample	Procedure[Trial]	Running[Trial]	Slide5.ACC	Slide5.CRESP	Slide5.DurationError	Slide5.OnsetDelay	Slide5.OnsetTime	Slide5.OnsetToOnsetTime	Slide5.RESP	Slide5.RT	SubTrial	CardIMG1[SubTrial]	CardIMG2[SubTrial]	CardIMG3[SubTrial]	CardIMG4[SubTrial]	CardStim[SubTrial]	ColorList	ColorList.Cycle	ColorList.Sample	ColorList2	ColorList2.Cycle	ColorList2.Sample	CorrectAnswer[SubTrial]	NonPerseverativeError	NumberList	NumberList.Cycle	NumberList.Sample	NumberList1	NumberList1.Cycle	NumberList1.Sample	PerseverativeError	Procedure[SubTrial]	Running[SubTrial]	ShapeList	ShapeList.Cycle	ShapeList.Sample	ShapeList1	ShapeList1.Cycle	ShapeList1.Sample	Stimulus.ACC	Stimulus.CRESP	Stimulus.DurationError	Stimulus.OnsetDelay	Stimulus.OnsetTime	Stimulus.OnsetToOnsetTime	Stimulus.RESP	Stimulus.RT	TrialType
Wisconsin	1150	4	<?xml version="1.0"?>\n<Clock xmlns:dt="urn:schemas-microsoft-com:datatypes"><Description dt:dt="string">E-Prime Primary Realtime Clock</Description><StartTime><Timestamp dt:dt="int">0</Timestamp><DateUtc dt:dt="string">2023-01-07T08:06:51Z</DateUtc></StartTime><FrequencyChanges><FrequencyChange><Frequency dt:dt="r8">2929863</Frequency><Timestamp dt:dt="r8">20815507014</Timestamp><Current dt:dt="r8">0</Current><DateUtc dt:dt="string">2023-01-07T08:06:51Z</DateUtc></FrequencyChange></FrequencyChanges></Clock>\n	Wisconsin-1150-4	59.957	1.0.0.555	1	-658767472	Professional	2.0.10.356	2.0.10.356	01-07-2023	1/7/2023 8:06:52 AM	16:06:52	2.0.10.252	1	1	1	1				Practicebloc	List1	1	Button1.png	Button2.png	Button3.png	Button4.png	Greencircle3.png	顏色	z	0		0	15	207301	0		0	0							1	1	1	PracticeTrialProc	PracticeList	1	z	0	1	205917	0	z	1368																																						
Wisconsin	1150	4	<?xml version="1.0"?>\n<Clock xmlns:dt="urn:schemas-microsoft-com:datatypes"><Description dt:dt="string">E-Prime Primary Realtime Clock</Description><StartTime><Timestamp dt:dt="int">0</Timestamp><DateUtc dt:dt="string">2023-01-07T08:06:51Z</DateUtc></StartTime><FrequencyChanges><FrequencyChange><Frequency dt:dt="r8">2929863</Frequency><Timestamp dt:dt="r8">20815507014</Timestamp><Current dt:dt="r8">0</Current><DateUtc dt:dt="string">2023-01-07T08:06:51Z</DateUtc></FrequencyChange></FrequencyChanges></Clock>\n	Wisconsin-1150-4	59.957	1.0.0.555	1	-658767472	Professional	2.0.10.356	2.0.10.356	01-07-2023	1/7/2023 8:06:52 AM	16:06:52	2.0.10.252	1	1	1	1				Practicebloc	List1	2	Button1.png	Button2.png	Button3.png	Button4.png	Redstar2.png	顏色	c	0		0	17	210904	0		0	0							2	1	2	PracticeTrialProc	PracticeList	1	c	0	1	209853	0	c	1031																																						
Wisconsin	1150	4	<?xml version="1.0"?>\n<Clock xmlns:dt="urn:schemas-microsoft-com:datatypes"><Description dt:dt="string">E-Prime Primary Realtime Clock</Description><StartTime><Timestamp dt:dt="int">0</Timestamp><DateUtc dt:dt="string">2023-01-07T08:06:51Z</DateUtc></StartTime><FrequencyChanges><FrequencyChange><Frequency dt:dt="r8">2929863</Frequency><Timestamp dt:dt="r8">20815507014</Timestamp><Current dt:dt="r8">0</Current><DateUtc dt:dt="string">2023-01-07T08:06:51Z</DateUtc></FrequencyChange></FrequencyChanges></Clock>\n	Wisconsin-1150-4	59.957	1.0.0.555	1	-658767472	Professional	2.0.10.356	2.0.10.356	01-07-2023	1/7/2023 8:06:52 AM	16:06:52	2.0.10.252	1	1	1	1				Practicebloc	List1	3	Button1.png	Button2.png	Button3.png	Button4.png	Bluetriangle1.png	形狀	x	0		0	16	214807	0		0	0							3	1	3	PracticeTrialProc	PracticeList	1	x	0	1	213456	0	x	1332																																						
Wisconsin	1150	4	<?xml version="1.0"?>\n<Clock xmlns:dt="urn:schemas-microsoft-com:datatypes"><Description dt:dt="string">E-Prime Primary Realtime Clock</Description><StartTime><Timestamp dt:dt="int">0</Timestamp><DateUtc dt:dt="string">2023-01-07T08:06:51Z</DateUtc></StartTime><FrequencyChanges><FrequencyChange><Frequency dt:dt="r8">2929863</Frequency><Timestamp dt:dt="r8">20815507014</Timestamp><Current dt:dt="r8">0</Current><DateUtc dt:dt="string">2023-01-07T08:06:51Z</DateUtc></FrequencyChange></FrequencyChanges></Clock>\n	Wisconsin-1150-4	59.957	1.0.0.555	1	-658767472	Professional	2.0.10.356	2.0.10.356	01-07-2023	1/7/2023 8:06:52 AM	16:06:52	2.0.10.252	1	1	1	1				Practicebloc	List1	4	Button1.png	Button2.png	Button3.png	Button4.png	greenstar2.png	形狀	v	0		0	16	218293	0		0	0							4	1	4	PracticeTrialProc	PracticeList	1	v	0	1	217359	0	v	917																																						
Wisconsin	1150	4	<?xml version="1.0"?>\n<Clock xmlns:dt="urn:schemas-microsoft-com:datatypes"><Description dt:dt="string">E-Prime Primary Realtime Clock</Description><StartTime><Timestamp dt:dt="int">0</Timestamp><DateUtc dt:dt="string">2023-01-07T08:06:51Z</DateUtc></StartTime><FrequencyChanges><FrequencyChange><Frequency dt:dt="r8">2929863</Frequency><Timestamp dt:dt="r8">20815507014</Timestamp><Current dt:dt="r8">0</Current><DateUtc dt:dt="string">2023-01-07T08:06:51Z</DateUtc></FrequencyChange></FrequencyChanges></Clock>\n	Wisconsin-1150-4	59.957	1.0.0.555	1	-658767472	Professional	2.0.10.356	2.0.10.356	01-07-2023	1/7/2023 8:06:52 AM	16:06:52	2.0.10.252	1	1	1	1				Practicebloc	List1	5	Button1.png	Button2.png	Button3.png	Button4.png	BlueCross4.png	數目	x	0		0	22	222029	0		0	0							5	1	5	PracticeTrialProc	PracticeList	1	x	1	0	220844	0	x	1160																																						
Wisconsin	1150	4	<?xml version="1.0"?>\n<Clock xmlns:dt="urn:schemas-microsoft-com:datatypes"><Description dt:dt="string">E-Prime Primary Realtime Clock</Description><StartTime><Timestamp dt:dt="int">0</Timestamp><DateUtc dt:dt="string">2023-01-07T08:06:51Z</DateUtc></StartTime><FrequencyChanges><FrequencyChange><Frequency dt:dt="r8">2929863</Frequency><Timestamp dt:dt="r8">20815507014</Timestamp><Current dt:dt="r8">0</Current><DateUtc dt:dt="string">2023-01-07T08:06:51Z</DateUtc></FrequencyChange></FrequencyChanges></Clock>\n	Wisconsin-1150-4	59.957	1.0.0.555	1	-658767472	Professional	2.0.10.356	2.0.10.356	01-07-2023	1/7/2023 8:06:52 AM	16:06:52	2.0.10.252	1	1	1	1				Practicebloc	List1	6	Button1.png	Button2.png	Button3.png	Button4.png	yellowcircle2.png	數目	z	0		0	25	225598	0		0	0							6	1	6	PracticeTrialProc	PracticeList	1	z	1	0	224580	0	z	992																																						
Wisconsin	1150	4	<?xml version="1.0"?>\n<Clock xmlns:dt="urn:schemas-microsoft-com:datatypes"><Description dt:dt="string">E-Prime Primary Realtime Clock</Description><StartTime><Timestamp dt:dt="int">0</Timestamp><DateUtc dt:dt="string">2023-01-07T08:06:51Z</DateUtc></StartTime><FrequencyChanges><FrequencyChange><Frequency dt:dt="r8">2929863</Frequency><Timestamp dt:dt="r8">20815507014</Timestamp><Current dt:dt="r8">0</Current><DateUtc dt:dt="string">2023-01-07T08:06:51Z</DateUtc></FrequencyChange></FrequencyChanges></Clock>\n	Wisconsin-1150-4	59.957	1.0.0.555	1	-658767472	Professional	2.0.10.356	2.0.10.356	01-07-2023	1/7/2023 8:06:52 AM	16:06:52	2.0.10.252	2				1	1	1	BlockProc	List3	1																	1	1	1							ColorProc	List2									1	BUTTON1.png	BUTTON2.PNG	BUTTON3.png	BUTTON4.png	greencircle3.png	4	1	1				z	1							0	TrialProc	ColorList							0	z	0	0	291045	0	c	3994	color
Wisconsin	1150	4	<?xml version="1.0"?>\n<Clock xmlns:dt="urn:schemas-microsoft-com:datatypes"><Description dt:dt="string">E-Prime Primary Realtime Clock</Description><StartTime><Timestamp dt:dt="int">0</Timestamp><DateUtc dt:dt="string">2023-01-07T08:06:51Z</DateUtc></StartTime><FrequencyChanges><FrequencyChange><Frequency dt:dt="r8">2929863</Frequency><Timestamp dt:dt="r8">20815507014</Timestamp><Current dt:dt="r8">0</Current><DateUtc dt:dt="string">2023-01-07T08:06:51Z</DateUtc></FrequencyChange></FrequencyChanges></Clock>\n	Wisconsin-1150-4	59.957	1.0.0.555	1	-658767472	Professional	2.0.10.356	2.0.10.356	01-07-2023	1/7/2023 8:06:52 AM	16:06:52	2.0.10.252	2				1	1	1	BlockProc	List3	1																	1	1	1							ColorProc	List2									2	BUTTON1.png	BUTTON2.PNG	BUTTON3.png	BUTTON4.png	bluecross2.png	2	1	2				v	1							0	TrialProc	ColorList							0	v	0	0	297583	0	c	1936	color
Wisconsin	1150	4	<?xml version="1.0"?>\n<Clock xmlns:dt="urn:schemas-microsoft-com:datatypes"><Description dt:dt="string">E-Prime Primary Realtime Clock</Description><StartTime><Timestamp dt:dt="int">0</Timestamp><DateUtc dt:dt="string">2023-01-07T08:06:51Z</DateUtc></StartTime><FrequencyChanges><FrequencyChange><Frequency dt:dt="r8">2929863</Frequency><Timestamp dt:dt="r8">20815507014</Timestamp><Current dt:dt="r8">0</Current><DateUtc dt:dt="string">2023-01-07T08:06:51Z</DateUtc></FrequencyChange></FrequencyChanges></Clock>\n	Wisconsin-1150-4	59.957	1.0.0.555	1	-658767472	Professional	2.0.10.356	2.0.10.356	01-07-2023	1/7/2023 8:06:52 AM	16:06:52	2.0.10.252	2				1	1	1	BlockProc	List3	1																	1	1	1							ColorProc	List2									3	BUTTON1.png	BUTTON2.PNG	BUTTON3.png	BUTTON4.png	greenstar2.png	5	1	3				z	1							0	TrialProc	ColorList							0	z	0	1	302053	0	v	1850	color
Wisconsin	1150	4	<?xml version="1.0"?>\n<Clock xmlns:dt="urn:schemas-microsoft-com:datatypes"><Description dt:dt="string">E-Prime Primary Realtime Clock</Description><StartTime><Timestamp dt:dt="int">0</Timestamp><DateUtc dt:dt="string">2023-01-07T08:06:51Z</DateUtc></StartTime><FrequencyChanges><FrequencyChange><Frequency dt:dt="r8">2929863</Frequency><Timestamp dt:dt="r8">20815507014</Timestamp><Current dt:dt="r8">0</Current><DateUtc dt:dt="string">2023-01-07T08:06:51Z</DateUtc></FrequencyChange></FrequencyChanges></Clock>\n	Wisconsin-1150-4	59.957	1.0.0.555	1	-658767472	Professional	2.0.10.356	2.0.10.356	01-07-2023	1/7/2023 8:06:52 AM	16:06:52	2.0.10.252	2				1	1	1	BlockProc	List3	1																	1	1	1							ColorProc	List2									4	BUTTON1.png	BUTTON2.PNG	BUTTON3.png	BUTTON4.png	greentriangle3.png	7	1	4				z	1							0	TrialProc	ColorList							0	z	0	1	306440	0	c	1751	color
Wisconsin	1150	4	<?xml version="1.0"?>\n<Clock xmlns:dt="urn:schemas-microsoft-com:datatypes"><Description dt:dt="string">E-Prime Primary Realtime Clock</Description><StartTime><Timestamp dt:dt="int">0</Timestamp><DateUtc dt:dt="string">2023-01-07T08:06:51Z</DateUtc></StartTime><FrequencyChanges><FrequencyChange><Frequency dt:dt="r8">2929863</Frequency><Timestamp dt:dt="r8">20815507014</Timestamp><Current dt:dt="r8">0</Current><DateUtc dt:dt="string">2023-01-07T08:06:51Z</DateUtc></FrequencyChange></FrequencyChanges></Clock>\n	Wisconsin-1150-4	59.957	1.0.0.555	1	-658767472	Professional	2.0.10.356	2.0.10.356	01-07-2023	1/7/2023 8:06:52 AM	16:06:52	2.0.10.252	2				1	1	1	BlockProc	List3	1																	1	1	1							ColorProc	List2									5	BUTTON1.png	BUTTON2.PNG	BUTTON3.png	BUTTON4.png	yellowcircle1.png	9	1	5				x	1							0	TrialProc	ColorList							0	x	0	1	310726	0	z	1192	color
Wisconsin	1150	4	<?xml version="1.0"?>\n<Clock xmlns:dt="urn:schemas-microsoft-com:datatypes"><Description dt:dt="string">E-Prime Primary Realtime Clock</Description><StartTime><Timestamp dt:dt="int">0</Timestamp><DateUtc dt:dt="string">2023-01-07T08:06:51Z</DateUtc></StartTime><FrequencyChanges><FrequencyChange><Frequency dt:dt="r8">2929863</Frequency><Timestamp dt:dt="r8">20815507014</Timestamp><Current dt:dt="r8">0</Current><DateUtc dt:dt="string">2023-01-07T08:06:51Z</DateUtc></FrequencyChange></FrequencyChanges></Clock>\n	Wisconsin-1150-4	59.957	1.0.0.555	1	-658767472	Professional	2.0.10.356	2.0.10.356	01-07-2023	1/7/2023 8:06:52 AM	16:06:52	2.0.10.252	2				1	1	1	BlockProc	List3	1																	1	1	1							ColorProc	List2									6	BUTTON1.png	BUTTON2.PNG	BUTTON3.png	BUTTON4.png	bluecircle1.png	1	1	6				v	0							0	TrialProc	ColorList							1	v	0	1	314462	0	v	1120	color
Wisconsin	1150	4	<?xml version="1.0"?>\n<Clock xmlns:dt="urn:schemas-microsoft-com:datatypes"><Description dt:dt="string">E-Prime Primary Realtime Clock</Description><StartTime><Timestamp dt:dt="int">0</Timestamp><DateUtc dt:dt="string">2023-01-07T08:06:51Z</DateUtc></StartTime><FrequencyChanges><FrequencyChange><Frequency dt:dt="r8">2929863</Frequency><Timestamp dt:dt="r8">20815507014</Timestamp><Current dt:dt="r8">0</Current><DateUtc dt:dt="string">2023-01-07T08:06:51Z</DateUtc></FrequencyChange></FrequencyChanges></Clock>\n	Wisconsin-1150-4	59.957	1.0.0.555	1	-658767472	Professional	2.0.10.356	2.0.10.356	01-07-2023	1/7/2023 8:06:52 AM	16:06:52	2.0.10.252	2				1	1	1	BlockProc	List3	1																	1	1	1							ColorProc	List2									7	BUTTON1.png	BUTTON2.PNG	BUTTON3.png	BUTTON4.png	bluetriangle3.png	3	1	7				v	1							0	TrialProc	ColorList							0	v	0	1	318115	0	c	1035	color
Wisconsin	1150	4	<?xml version="1.0"?>\n<Clock xmlns:dt="urn:schemas-microsoft-com:datatypes"><Description dt:dt="string">E-Prime Primary Realtime Clock</Description><StartTime><Timestamp dt:dt="int">0</Timestamp><DateUtc dt:dt="string">2023-01-07T08:06:51Z</DateUtc></StartTime><FrequencyChanges><FrequencyChange><Frequency dt:dt="r8">2929863</Frequency><Timestamp dt:dt="r8">20815507014</Timestamp><Current dt:dt="r8">0</Current><DateUtc dt:dt="string">2023-01-07T08:06:51Z</DateUtc></FrequencyChange></FrequencyChanges></Clock>\n	Wisconsin-1150-4	59.957	1.0.0.555	1	-658767472	Professional	2.0.10.356	2.0.10.356	01-07-2023	1/7/2023 8:06:52 AM	16:06:52	2.0.10.252	2				1	1	1	BlockProc	List3	1																	1	1	1							ColorProc	List2									8	BUTTON1.png	BUTTON2.PNG	BUTTON3.png	BUTTON4.png	redcircle3.png	8	1	8				c	1							0	TrialProc	ColorList							0	c	0	1	321684	0	z	1258	color
Wisconsin	1150	4	<?xml version="1.0"?>\n<Clock xmlns:dt="urn:schemas-microsoft-com:datatypes"><Description dt:dt="string">E-Prime Primary Realtime Clock</Description><StartTime><Timestamp dt:dt="int">0</Timestamp><DateUtc dt:dt="string">2023-01-07T08:06:51Z</DateUtc></StartTime><FrequencyChanges><FrequencyChange><Frequency dt:dt="r8">2929863</Frequency><Timestamp dt:dt="r8">20815507014</Timestamp><Current dt:dt="r8">0</Current><DateUtc dt:dt="string">2023-01-07T08:06:51Z</DateUtc></FrequencyChange></FrequencyChanges></Clock>\n	Wisconsin-1150-4	59.957	1.0.0.555	1	-658767472	Professional	2.0.10.356	2.0.10.356	01-07-2023	1/7/2023 8:06:52 AM	16:06:52	2.0.10.252	2				1	1	1	BlockProc	List3	1																	1	1	1							ColorProc	List2									9	BUTTON1.png	BUTTON2.PNG	BUTTON3.png	BUTTON4.png	yellowstar3.png	10	1	9				x	1							0	TrialProc	ColorList							0	x	0	1	325487	0	c	1071	color
Wisconsin	1150	4	<?xml version="1.0"?>\n<Clock xmlns:dt="urn:schemas-microsoft-com:datatypes"><Description dt:dt="string">E-Prime Primary Realtime Clock</Description><StartTime><Timestamp dt:dt="int">0</Timestamp><DateUtc dt:dt="string">2023-01-07T08:06:51Z</DateUtc></StartTime><FrequencyChanges><FrequencyChange><Frequency dt:dt="r8">2929863</Frequency><Timestamp dt:dt="r8">20815507014</Timestamp><Current dt:dt="r8">0</Current><DateUtc dt:dt="string">2023-01-07T08:06:51Z</DateUtc></FrequencyChange></FrequencyChanges></Clock>\n	Wisconsin-1150-4	59.957	1.0.0.555	1	-658767472	Professional	2.0.10.356	2.0.10.356	01-07-2023	1/7/2023 8:06:52 AM	16:06:52	2.0.10.252	2				1	1	1	BlockProc	List3	1																	1	1	1							ColorProc	List2									10	BUTTON1.png	BUTTON2.PNG	BUTTON3.png	BUTTON4.png	greentriangle1.png	6	1	10				z	1							0	TrialProc	ColorList							0	z	1	0	329089	0	v	1276	color
Wisconsin	1150	4	<?xml version="1.0"?>\n<Clock xmlns:dt="urn:schemas-microsoft-com:datatypes"><Description dt:dt="string">E-Prime Primary Realtime Clock</Description><StartTime><Timestamp dt:dt="int">0</Timestamp><DateUtc dt:dt="string">2023-01-07T08:06:51Z</DateUtc></StartTime><FrequencyChanges><FrequencyChange><Frequency dt:dt="r8">2929863</Frequency><Timestamp dt:dt="r8">20815507014</Timestamp><Current dt:dt="r8">0</Current><DateUtc dt:dt="string">2023-01-07T08:06:51Z</DateUtc></FrequencyChange></FrequencyChanges></Clock>\n	Wisconsin-1150-4	59.957	1.0.0.555	1	-658767472	Professional	2.0.10.356	2.0.10.356	01-07-2023	1/7/2023 8:06:52 AM	16:06:52	2.0.10.252	2				1	1	1	BlockProc	List3	2																	2	1	2							NumberProc	List2									1	Button1.png	Button2.png	Button3.png	Button4.png	Redcircle4.png							x	0	6	1	1				0	TrialProc	NumberList							1	x	0	1	332909	0	x	1104	number
Wisconsin	1150	4	<?xml version="1.0"?>\n<Clock xmlns:dt="urn:schemas-microsoft-com:datatypes"><Description dt:dt="string">E-Prime Primary Realtime Clock</Description><StartTime><Timestamp dt:dt="int">0</Timestamp><DateUtc dt:dt="string">2023-01-07T08:06:51Z</DateUtc></StartTime><FrequencyChanges><FrequencyChange><Frequency dt:dt="r8">2929863</Frequency><Timestamp dt:dt="r8">20815507014</Timestamp><Current dt:dt="r8">0</Current><DateUtc dt:dt="string">2023-01-07T08:06:51Z</DateUtc></FrequencyChange></FrequencyChanges></Clock>\n	Wisconsin-1150-4	59.957	1.0.0.555	1	-658767472	Professional	2.0.10.356	2.0.10.356	01-07-2023	1/7/2023 8:06:52 AM	16:06:52	2.0.10.252	2				1	1	1	BlockProc	List3	2																	2	1	2							NumberProc	List2									2	Button1.png	Button2.png	Button3.png	Button4.png	Greencircle4.png							x	0	4	1	2				0	TrialProc	NumberList							1	x	0	1	336545	0	x	1132	number
Wisconsin	1150	4	<?xml version="1.0"?>\n<Clock xmlns:dt="urn:schemas-microsoft-com:datatypes"><Description dt:dt="string">E-Prime Primary Realtime Clock</Description><StartTime><Timestamp dt:dt="int">0</Timestamp><DateUtc dt:dt="string">2023-01-07T08:06:51Z</DateUtc></StartTime><FrequencyChanges><FrequencyChange><Frequency dt:dt="r8">2929863</Frequency><Timestamp dt:dt="r8">20815507014</Timestamp><Current dt:dt="r8">0</Current><DateUtc dt:dt="string">2023-01-07T08:06:51Z</DateUtc></FrequencyChange></FrequencyChanges></Clock>\n	Wisconsin-1150-4	59.957	1.0.0.555	1	-658767472	Professional	2.0.10.356	2.0.10.356	01-07-2023	1/7/2023 8:06:52 AM	16:06:52	2.0.10.252	2				1	1	1	BlockProc	List3	2																	2	1	2							NumberProc	List2									3	Button1.png	Button2.png	Button3.png	Button4.png	Bluestar2.png							z	0	2	1	3				0	TrialProc	NumberList							1	z	0	1	340214	0	z	1207	number
Wisconsin	1150	4	<?xml version="1.0"?>\n<Clock xmlns:dt="urn:schemas-microsoft-com:datatypes"><Description dt:dt="string">E-Prime Primary Realtime Clock</Description><StartTime><Timestamp dt:dt="int">0</Timestamp><DateUtc dt:dt="string">2023-01-07T08:06:51Z</DateUtc></StartTime><FrequencyChanges><FrequencyChange><Frequency dt:dt="r8">2929863</Frequency><Timestamp dt:dt="r8">20815507014</Timestamp><Current dt:dt="r8">0</Current><DateUtc dt:dt="string">2023-01-07T08:06:51Z</DateUtc></FrequencyChange></FrequencyChanges></Clock>\n	Wisconsin-1150-4	59.957	1.0.0.555	1	-658767472	Professional	2.0.10.356	2.0.10.356	01-07-2023	1/7/2023 8:06:52 AM	16:06:52	2.0.10.252	2				1	1	1	BlockProc	List3	2																	2	1	2							NumberProc	List2									4	Button1.png	Button2.png	Button3.png	Button4.png	Greencross3.png							c	0	5	1	4				0	TrialProc	NumberList							1	c	0	0	343950	0	c	1262	number
Wisconsin	1150	4	<?xml version="1.0"?>\n<Clock xmlns:dt="urn:schemas-microsoft-com:datatypes"><Description dt:dt="string">E-Prime Primary Realtime Clock</Description><StartTime><Timestamp dt:dt="int">0</Timestamp><DateUtc dt:dt="string">2023-01-07T08:06:51Z</DateUtc></StartTime><FrequencyChanges><FrequencyChange><Frequency dt:dt="r8">2929863</Frequency><Timestamp dt:dt="r8">20815507014</Timestamp><Current dt:dt="r8">0</Current><DateUtc dt:dt="string">2023-01-07T08:06:51Z</DateUtc></FrequencyChange></FrequencyChanges></Clock>\n	Wisconsin-1150-4	59.957	1.0.0.555	1	-658767472	Professional	2.0.10.356	2.0.10.356	01-07-2023	1/7/2023 8:06:52 AM	16:06:52	2.0.10.252	2				1	1	1	BlockProc	List3	2																	2	1	2							NumberProc	List2									5	Button1.png	Button2.png	Button3.png	Button4.png	Bluecircle4.png							x	1	1	1	5				0	TrialProc	NumberList							0	x	0	1	347753	0	z	1827	number
Wisconsin	1150	4	<?xml version="1.0"?>\n<Clock xmlns:dt="urn:schemas-microsoft-com:datatypes"><Description dt:dt="string">E-Prime Primary Realtime Clock</Description><StartTime><Timestamp dt:dt="int">0</Timestamp><DateUtc dt:dt="string">2023-01-07T08:06:51Z</DateUtc></StartTime><FrequencyChanges><FrequencyChange><Frequency dt:dt="r8">2929863</Frequency><Timestamp dt:dt="r8">20815507014</Timestamp><Current dt:dt="r8">0</Current><DateUtc dt:dt="string">2023-01-07T08:06:51Z</DateUtc></FrequencyChange></FrequencyChanges></Clock>\n	Wisconsin-1150-4	59.957	1.0.0.555	1	-658767472	Professional	2.0.10.356	2.0.10.356	01-07-2023	1/7/2023 8:06:52 AM	16:06:52	2.0.10.252	2				1	1	1	BlockProc	List3	2																	2	1	2							NumberProc	List2									6	Button1.png	Button2.png	Button3.png	Button4.png	Redstar2.png							z	0	7	1	6				0	TrialProc	NumberList							1	z	0	1	352123	0	z	2465	number
Wisconsin	1150	4	<?xml version="1.0"?>\n<Clock xmlns:dt="urn:schemas-microsoft-com:datatypes"><Description dt:dt="string">E-Prime Primary Realtime Clock</Description><StartTime><Timestamp dt:dt="int">0</Timestamp><DateUtc dt:dt="string">2023-01-07T08:06:51Z</DateUtc></StartTime><FrequencyChanges><FrequencyChange><Frequency dt:dt="r8">2929863</Frequency><Timestamp dt:dt="r8">20815507014</Timestamp><Current dt:dt="r8">0</Current><DateUtc dt:dt="string">2023-01-07T08:06:51Z</DateUtc></FrequencyChange></FrequencyChanges></Clock>\n	Wisconsin-1150-4	59.957	1.0.0.555	1	-658767472	Professional	2.0.10.356	2.0.10.356	01-07-2023	1/7/2023 8:06:52 AM	16:06:52	2.0.10.252	2				1	1	1	BlockProc	List3	2																	2	1	2							NumberProc	List2									7	Button1.png	Button2.png	Button3.png	Button4.png	Yellowcross3.png							c	0	10	1	7				0	TrialProc	NumberList							1	c	1	0	357126	0	c	1206	number
Wisconsin	1150	4	<?xml version="1.0"?>\n<Clock xmlns:dt="urn:schemas-microsoft-com:datatypes"><Description dt:dt="string">E-Prime Primary Realtime Clock</Description><StartTime><Timestamp dt:dt="int">0</Timestamp><DateUtc dt:dt="string">2023-01-07T08:06:51Z</DateUtc></StartTime><FrequencyChanges><FrequencyChange><Frequency dt:dt="r8">2929863</Frequency><Timestamp dt:dt="r8">20815507014</Timestamp><Current dt:dt="r8">0</Current><DateUtc dt:dt="string">2023-01-07T08:06:51Z</DateUtc></FrequencyChange></FrequencyChanges></Clock>\n	Wisconsin-1150-4	59.957	1.0.0.555	1	-658767472	Professional	2.0.10.356	2.0.10.356	01-07-2023	1/7/2023 8:06:52 AM	16:06:52	2.0.10.252	2				1	1	1	BlockProc	List3	2																	2	1	2							NumberProc	List2									8	Button1.png	Button2.png	Button3.png	Button4.png	Redtriangle4.png							x	0	8	1	8				0	TrialProc	NumberList							1	x	1	0	360862	0	x	717	number
Wisconsin	1150	4	<?xml version="1.0"?>\n<Clock xmlns:dt="urn:schemas-microsoft-com:datatypes"><Description dt:dt="string">E-Prime Primary Realtime Clock</Description><StartTime><Timestamp dt:dt="int">0</Timestamp><DateUtc dt:dt="string">2023-01-07T08:06:51Z</DateUtc></StartTime><FrequencyChanges><FrequencyChange><Frequency dt:dt="r8">2929863</Frequency><Timestamp dt:dt="r8">20815507014</Timestamp><Current dt:dt="r8">0</Current><DateUtc dt:dt="string">2023-01-07T08:06:51Z</DateUtc></FrequencyChange></FrequencyChanges></Clock>\n	Wisconsin-1150-4	59.957	1.0.0.555	1	-658767472	Professional	2.0.10.356	2.0.10.356	01-07-2023	1/7/2023 8:06:52 AM	16:06:52	2.0.10.252	2				1	1	1	BlockProc	List3	2																	2	1	2							NumberProc	List2									9	Button1.png	Button2.png	Button3.png	Button4.png	Bluetriangle1.png							v	0	3	1	9				0	TrialProc	NumberList							1	v	0	1	364115	0	v	1800	number
Wisconsin	1150	4	<?xml version="1.0"?>\n<Clock xmlns:dt="urn:schemas-microsoft-com:datatypes"><Description dt:dt="string">E-Prime Primary Realtime Clock</Description><StartTime><Timestamp dt:dt="int">0</Timestamp><DateUtc dt:dt="string">2023-01-07T08:06:51Z</DateUtc></StartTime><FrequencyChanges><FrequencyChange><Frequency dt:dt="r8">2929863</Frequency><Timestamp dt:dt="r8">20815507014</Timestamp><Current dt:dt="r8">0</Current><DateUtc dt:dt="string">2023-01-07T08:06:51Z</DateUtc></FrequencyChange></FrequencyChanges></Clock>\n	Wisconsin-1150-4	59.957	1.0.0.555	1	-658767472	Professional	2.0.10.356	2.0.10.356	01-07-2023	1/7/2023 8:06:52 AM	16:06:52	2.0.10.252	2				1	1	1	BlockProc	List3	2																	2	1	2							NumberProc	List2									10	Button1.png	Button2.png	Button3.png	Button4.png	Yellowcross1.png							v	0	9	1	10				0	TrialProc	NumberList							1	v	0	0	368451	0	v	1048	number
Wisconsin	1150	4	<?xml version="1.0"?>\n<Clock xmlns:dt="urn:schemas-microsoft-com:datatypes"><Description dt:dt="string">E-Prime Primary Realtime Clock</Description><StartTime><Timestamp dt:dt="int">0</Timestamp><DateUtc dt:dt="string">2023-01-07T08:06:51Z</DateUtc></StartTime><FrequencyChanges><FrequencyChange><Frequency dt:dt="r8">2929863</Frequency><Timestamp dt:dt="r8">20815507014</Timestamp><Current dt:dt="r8">0</Current><DateUtc dt:dt="string">2023-01-07T08:06:51Z</DateUtc></FrequencyChange></FrequencyChanges></Clock>\n	Wisconsin-1150-4	59.957	1.0.0.555	1	-658767472	Professional	2.0.10.356	2.0.10.356	01-07-2023	1/7/2023 8:06:52 AM	16:06:52	2.0.10.252	2				1	1	1	BlockProc	List3	3																	3	1	3							ShapeProc	List2									1	Button1.png	Button2.png	Button3.png	Button4.png	Redcross1.png							c	1							0	TrialProc	ShapeList	5	1	1				0	c	0	1	372037	0	v	758	Shape
Wisconsin	1150	4	<?xml version="1.0"?>\n<Clock xmlns:dt="urn:schemas-microsoft-com:datatypes"><Description dt:dt="string">E-Prime Primary Realtime Clock</Description><StartTime><Timestamp dt:dt="int">0</Timestamp><DateUtc dt:dt="string">2023-01-07T08:06:51Z</DateUtc></StartTime><FrequencyChanges><FrequencyChange><Frequency dt:dt="r8">2929863</Frequency><Timestamp dt:dt="r8">20815507014</Timestamp><Current dt:dt="r8">0</Current><DateUtc dt:dt="string">2023-01-07T08:06:51Z</DateUtc></FrequencyChange></FrequencyChanges></Clock>\n	Wisconsin-1150-4	59.957	1.0.0.555	1	-658767472	Professional	2.0.10.356	2.0.10.356	01-07-2023	1/7/2023 8:06:52 AM	16:06:52	2.0.10.252	2				1	1	1	BlockProc	List3	3																	3	1	3							ShapeProc	List2									2	Button1.png	Button2.png	Button3.png	Button4.png	Redtriangle1.png							x	0							0	TrialProc	ShapeList	7	1	2				1	x	0	1	375340	0	x	2175	Shape
Wisconsin	1150	4	<?xml version="1.0"?>\n<Clock xmlns:dt="urn:schemas-microsoft-com:datatypes"><Description dt:dt="string">E-Prime Primary Realtime Clock</Description><StartTime><Timestamp dt:dt="int">0</Timestamp><DateUtc dt:dt="string">2023-01-07T08:06:51Z</DateUtc></StartTime><FrequencyChanges><FrequencyChange><Frequency dt:dt="r8">2929863</Frequency><Timestamp dt:dt="r8">20815507014</Timestamp><Current dt:dt="r8">0</Current><DateUtc dt:dt="string">2023-01-07T08:06:51Z</DateUtc></FrequencyChange></FrequencyChanges></Clock>\n	Wisconsin-1150-4	59.957	1.0.0.555	1	-658767472	Professional	2.0.10.356	2.0.10.356	01-07-2023	1/7/2023 8:06:52 AM	16:06:52	2.0.10.252	2				1	1	1	BlockProc	List3	3																	3	1	3							ShapeProc	List2									3	Button1.png	Button2.png	Button3.png	Button4.png	Greencross1.png							c	0							0	TrialProc	ShapeList	3	1	3				1	c	0	1	380060	0	c	910	Shape
Wisconsin	1150	4	<?xml version="1.0"?>\n<Clock xmlns:dt="urn:schemas-microsoft-com:datatypes"><Description dt:dt="string">E-Prime Primary Realtime Clock</Description><StartTime><Timestamp dt:dt="int">0</Timestamp><DateUtc dt:dt="string">2023-01-07T08:06:51Z</DateUtc></StartTime><FrequencyChanges><FrequencyChange><Frequency dt:dt="r8">2929863</Frequency><Timestamp dt:dt="r8">20815507014</Timestamp><Current dt:dt="r8">0</Current><DateUtc dt:dt="string">2023-01-07T08:06:51Z</DateUtc></FrequencyChange></FrequencyChanges></Clock>\n	Wisconsin-1150-4	59.957	1.0.0.555	1	-658767472	Professional	2.0.10.356	2.0.10.356	01-07-2023	1/7/2023 8:06:52 AM	16:06:52	2.0.10.252	2				1	1	1	BlockProc	List3	3																	3	1	3							ShapeProc	List2									4	Button1.png	Button2.png	Button3.png	Button4.png	yellowcircle3.png							z	0							0	TrialProc	ShapeList	8	1	4				1	z	0	1	383512	0	z	818	Shape
Wisconsin	1150	4	<?xml version="1.0"?>\n<Clock xmlns:dt="urn:schemas-microsoft-com:datatypes"><Description dt:dt="string">E-Prime Primary Realtime Clock</Description><StartTime><Timestamp dt:dt="int">0</Timestamp><DateUtc dt:dt="string">2023-01-07T08:06:51Z</DateUtc></StartTime><FrequencyChanges><FrequencyChange><Frequency dt:dt="r8">2929863</Frequency><Timestamp dt:dt="r8">20815507014</Timestamp><Current dt:dt="r8">0</Current><DateUtc dt:dt="string">2023-01-07T08:06:51Z</DateUtc></FrequencyChange></FrequencyChanges></Clock>\n	Wisconsin-1150-4	59.957	1.0.0.555	1	-658767472	Professional	2.0.10.356	2.0.10.356	01-07-2023	1/7/2023 8:06:52 AM	16:06:52	2.0.10.252	2				1	1	1	BlockProc	List3	3																	3	1	3							ShapeProc	List2									5	Button1.png	Button2.png	Button3.png	Button4.png	Bluecross4.png							c	0							0	TrialProc	ShapeList	2	1	5				1	c	0	1	386865	0	c	1337	Shape
Wisconsin	1150	4	<?xml version="1.0"?>\n<Clock xmlns:dt="urn:schemas-microsoft-com:datatypes"><Description dt:dt="string">E-Prime Primary Realtime Clock</Description><StartTime><Timestamp dt:dt="int">0</Timestamp><DateUtc dt:dt="string">2023-01-07T08:06:51Z</DateUtc></StartTime><FrequencyChanges><FrequencyChange><Frequency dt:dt="r8">2929863</Frequency><Timestamp dt:dt="r8">20815507014</Timestamp><Current dt:dt="r8">0</Current><DateUtc dt:dt="string">2023-01-07T08:06:51Z</DateUtc></FrequencyChange></FrequencyChanges></Clock>\n	Wisconsin-1150-4	59.957	1.0.0.555	1	-658767472	Professional	2.0.10.356	2.0.10.356	01-07-2023	1/7/2023 8:06:52 AM	16:06:52	2.0.10.252	2				1	1	1	BlockProc	List3	3																	3	1	3							ShapeProc	List2									6	Button1.png	Button2.png	Button3.png	Button4.png	Bluecircle2.png							z	0							0	TrialProc	ShapeList	1	1	6				1	z	0	1	390734	0	z	940	Shape
Wisconsin	1150	4	<?xml version="1.0"?>\n<Clock xmlns:dt="urn:schemas-microsoft-com:datatypes"><Description dt:dt="string">E-Prime Primary Realtime Clock</Description><StartTime><Timestamp dt:dt="int">0</Timestamp><DateUtc dt:dt="string">2023-01-07T08:06:51Z</DateUtc></StartTime><FrequencyChanges><FrequencyChange><Frequency dt:dt="r8">2929863</Frequency><Timestamp dt:dt="r8">20815507014</Timestamp><Current dt:dt="r8">0</Current><DateUtc dt:dt="string">2023-01-07T08:06:51Z</DateUtc></FrequencyChange></FrequencyChanges></Clock>\n	Wisconsin-1150-4	59.957	1.0.0.555	1	-658767472	Professional	2.0.10.356	2.0.10.356	01-07-2023	1/7/2023 8:06:52 AM	16:06:52	2.0.10.252	2				1	1	1	BlockProc	List3	3																	3	1	3							ShapeProc	List2									7	Button1.png	Button2.png	Button3.png	Button4.png	Redcross4.png							c	0							0	TrialProc	ShapeList	6	1	7				1	c	0	0	394203	0	c	878	Shape
Wisconsin	1150	4	<?xml version="1.0"?>\n<Clock xmlns:dt="urn:schemas-microsoft-com:datatypes"><Description dt:dt="string">E-Prime Primary Realtime Clock</Description><StartTime><Timestamp dt:dt="int">0</Timestamp><DateUtc dt:dt="string">2023-01-07T08:06:51Z</DateUtc></StartTime><FrequencyChanges><FrequencyChange><Frequency dt:dt="r8">2929863</Frequency><Timestamp dt:dt="r8">20815507014</Timestamp><Current dt:dt="r8">0</Current><DateUtc dt:dt="string">2023-01-07T08:06:51Z</DateUtc></FrequencyChange></FrequencyChanges></Clock>\n	Wisconsin-1150-4	59.957	1.0.0.555	1	-658767472	Professional	2.0.10.356	2.0.10.356	01-07-2023	1/7/2023 8:06:52 AM	16:06:52	2.0.10.252	2				1	1	1	BlockProc	List3	3																	3	1	3							ShapeProc	List2									8	Button1.png	Button2.png	Button3.png	Button4.png	Yellowstar4.png							v	0							0	TrialProc	ShapeList	10	1	8				1	v	0	0	397622	0	v	867	Shape
Wisconsin	1150	4	<?xml version="1.0"?>\n<Clock xmlns:dt="urn:schemas-microsoft-com:datatypes"><Description dt:dt="string">E-Prime Primary Realtime Clock</Description><StartTime><Timestamp dt:dt="int">0</Timestamp><DateUtc dt:dt="string">2023-01-07T08:06:51Z</DateUtc></StartTime><FrequencyChanges><FrequencyChange><Frequency dt:dt="r8">2929863</Frequency><Timestamp dt:dt="r8">20815507014</Timestamp><Current dt:dt="r8">0</Current><DateUtc dt:dt="string">2023-01-07T08:06:51Z</DateUtc></FrequencyChange></FrequencyChanges></Clock>\n	Wisconsin-1150-4	59.957	1.0.0.555	1	-658767472	Professional	2.0.10.356	2.0.10.356	01-07-2023	1/7/2023 8:06:52 AM	16:06:52	2.0.10.252	2				1	1	1	BlockProc	List3	3																	3	1	3							ShapeProc	List2									9	Button1.png	Button2.png	Button3.png	Button4.png	Greentriangle4.png							x	0							0	TrialProc	ShapeList	4	1	9				1	x	0	1	401025	0	x	664	Shape
Wisconsin	1150	4	<?xml version="1.0"?>\n<Clock xmlns:dt="urn:schemas-microsoft-com:datatypes"><Description dt:dt="string">E-Prime Primary Realtime Clock</Description><StartTime><Timestamp dt:dt="int">0</Timestamp><DateUtc dt:dt="string">2023-01-07T08:06:51Z</DateUtc></StartTime><FrequencyChanges><FrequencyChange><Frequency dt:dt="r8">2929863</Frequency><Timestamp dt:dt="r8">20815507014</Timestamp><Current dt:dt="r8">0</Current><DateUtc dt:dt="string">2023-01-07T08:06:51Z</DateUtc></FrequencyChange></FrequencyChanges></Clock>\n	Wisconsin-1150-4	59.957	1.0.0.555	1	-658767472	Professional	2.0.10.356	2.0.10.356	01-07-2023	1/7/2023 8:06:52 AM	16:06:52	2.0.10.252	2				1	1	1	BlockProc	List3	3																	3	1	3							ShapeProc	List2									10	Button1.png	Button2.png	Button3.png	Button4.png	Yellowstar1.png							v	0							0	TrialProc	ShapeList	9	1	10				1	v	0	1	404227	0	v	710	Shape
Wisconsin	1150	4	<?xml version="1.0"?>\n<Clock xmlns:dt="urn:schemas-microsoft-com:datatypes"><Description dt:dt="string">E-Prime Primary Realtime Clock</Description><StartTime><Timestamp dt:dt="int">0</Timestamp><DateUtc dt:dt="string">2023-01-07T08:06:51Z</DateUtc></StartTime><FrequencyChanges><FrequencyChange><Frequency dt:dt="r8">2929863</Frequency><Timestamp dt:dt="r8">20815507014</Timestamp><Current dt:dt="r8">0</Current><DateUtc dt:dt="string">2023-01-07T08:06:51Z</DateUtc></FrequencyChange></FrequencyChanges></Clock>\n	Wisconsin-1150-4	59.957	1.0.0.555	1	-658767472	Professional	2.0.10.356	2.0.10.356	01-07-2023	1/7/2023 8:06:52 AM	16:06:52	2.0.10.252	3				2	1	2	BlockProc2	List3	1																				2	1	1				NumberProc2	List4									1	Button1.png	Button2.png	Button3.png	Button4.png	Redtriangle2.png							z	1				7	1	1	0	TrialProc	NumberList1							0	z	1	0	407479	0	x	1410	number
Wisconsin	1150	4	<?xml version="1.0"?>\n<Clock xmlns:dt="urn:schemas-microsoft-com:datatypes"><Description dt:dt="string">E-Prime Primary Realtime Clock</Description><StartTime><Timestamp dt:dt="int">0</Timestamp><DateUtc dt:dt="string">2023-01-07T08:06:51Z</DateUtc></StartTime><FrequencyChanges><FrequencyChange><Frequency dt:dt="r8">2929863</Frequency><Timestamp dt:dt="r8">20815507014</Timestamp><Current dt:dt="r8">0</Current><DateUtc dt:dt="string">2023-01-07T08:06:51Z</DateUtc></FrequencyChange></FrequencyChanges></Clock>\n	Wisconsin-1150-4	59.957	1.0.0.555	1	-658767472	Professional	2.0.10.356	2.0.10.356	01-07-2023	1/7/2023 8:06:52 AM	16:06:52	2.0.10.252	3				2	1	2	BlockProc2	List3	1																				2	1	1				NumberProc2	List4									2	Button1.png	Button2.png	Button3.png	Button4.png	Bluestar4.png							x	1				2	1	2	0	TrialProc	NumberList1							0	x	0	1	411416	0	v	1248	number
Wisconsin	1150	4	<?xml version="1.0"?>\n<Clock xmlns:dt="urn:schemas-microsoft-com:datatypes"><Description dt:dt="string">E-Prime Primary Realtime Clock</Description><StartTime><Timestamp dt:dt="int">0</Timestamp><DateUtc dt:dt="string">2023-01-07T08:06:51Z</DateUtc></StartTime><FrequencyChanges><FrequencyChange><Frequency dt:dt="r8">2929863</Frequency><Timestamp dt:dt="r8">20815507014</Timestamp><Current dt:dt="r8">0</Current><DateUtc dt:dt="string">2023-01-07T08:06:51Z</DateUtc></FrequencyChange></FrequencyChanges></Clock>\n	Wisconsin-1150-4	59.957	1.0.0.555	1	-658767472	Professional	2.0.10.356	2.0.10.356	01-07-2023	1/7/2023 8:06:52 AM	16:06:52	2.0.10.252	3				2	1	2	BlockProc2	List3	1																				2	1	1				NumberProc2	List4									3	Button1.png	Button2.png	Button3.png	Button4.png	Bluetriangle4.png							x	0				3	1	3	0	TrialProc	NumberList1							1	x	0	1	415202	0	x	950	number
Wisconsin	1150	4	<?xml version="1.0"?>\n<Clock xmlns:dt="urn:schemas-microsoft-com:datatypes"><Description dt:dt="string">E-Prime Primary Realtime Clock</Description><StartTime><Timestamp dt:dt="int">0</Timestamp><DateUtc dt:dt="string">2023-01-07T08:06:51Z</DateUtc></StartTime><FrequencyChanges><FrequencyChange><Frequency dt:dt="r8">2929863</Frequency><Timestamp dt:dt="r8">20815507014</Timestamp><Current dt:dt="r8">0</Current><DateUtc dt:dt="string">2023-01-07T08:06:51Z</DateUtc></FrequencyChange></FrequencyChanges></Clock>\n	Wisconsin-1150-4	59.957	1.0.0.555	1	-658767472	Professional	2.0.10.356	2.0.10.356	01-07-2023	1/7/2023 8:06:52 AM	16:06:52	2.0.10.252	3				2	1	2	BlockProc2	List3	1																				2	1	1				NumberProc2	List4									4	Button1.png	Button2.png	Button3.png	Button4.png	yellowcircle4.png							x	1				8	1	4	0	TrialProc	NumberList1							0	x	0	1	418688	0	z	1112	number
Wisconsin	1150	4	<?xml version="1.0"?>\n<Clock xmlns:dt="urn:schemas-microsoft-com:datatypes"><Description dt:dt="string">E-Prime Primary Realtime Clock</Description><StartTime><Timestamp dt:dt="int">0</Timestamp><DateUtc dt:dt="string">2023-01-07T08:06:51Z</DateUtc></StartTime><FrequencyChanges><FrequencyChange><Frequency dt:dt="r8">2929863</Frequency><Timestamp dt:dt="r8">20815507014</Timestamp><Current dt:dt="r8">0</Current><DateUtc dt:dt="string">2023-01-07T08:06:51Z</DateUtc></FrequencyChange></FrequencyChanges></Clock>\n	Wisconsin-1150-4	59.957	1.0.0.555	1	-658767472	Professional	2.0.10.356	2.0.10.356	01-07-2023	1/7/2023 8:06:52 AM	16:06:52	2.0.10.252	3				2	1	2	BlockProc2	List3	1																				2	1	1				NumberProc2	List4									5	Button1.png	Button2.png	Button3.png	Button4.png	Greencross2.png							z	1				4	1	5	0	TrialProc	NumberList1							0	z	0	0	422340	0	c	884	number
Wisconsin	1150	4	<?xml version="1.0"?>\n<Clock xmlns:dt="urn:schemas-microsoft-com:datatypes"><Description dt:dt="string">E-Prime Primary Realtime Clock</Description><StartTime><Timestamp dt:dt="int">0</Timestamp><DateUtc dt:dt="string">2023-01-07T08:06:51Z</DateUtc></StartTime><FrequencyChanges><FrequencyChange><Frequency dt:dt="r8">2929863</Frequency><Timestamp dt:dt="r8">20815507014</Timestamp><Current dt:dt="r8">0</Current><DateUtc dt:dt="string">2023-01-07T08:06:51Z</DateUtc></FrequencyChange></FrequencyChanges></Clock>\n	Wisconsin-1150-4	59.957	1.0.0.555	1	-658767472	Professional	2.0.10.356	2.0.10.356	01-07-2023	1/7/2023 8:06:52 AM	16:06:52	2.0.10.252	3				2	1	2	BlockProc2	List3	1																				2	1	1				NumberProc2	List4									6	Button1.png	Button2.png	Button3.png	Button4.png	Greenstar1.png							v	0				5	1	6	0	TrialProc	NumberList1							1	v	0	0	425759	0	v	953	number
Wisconsin	1150	4	<?xml version="1.0"?>\n<Clock xmlns:dt="urn:schemas-microsoft-com:datatypes"><Description dt:dt="string">E-Prime Primary Realtime Clock</Description><StartTime><Timestamp dt:dt="int">0</Timestamp><DateUtc dt:dt="string">2023-01-07T08:06:51Z</DateUtc></StartTime><FrequencyChanges><FrequencyChange><Frequency dt:dt="r8">2929863</Frequency><Timestamp dt:dt="r8">20815507014</Timestamp><Current dt:dt="r8">0</Current><DateUtc dt:dt="string">2023-01-07T08:06:51Z</DateUtc></FrequencyChange></FrequencyChanges></Clock>\n	Wisconsin-1150-4	59.957	1.0.0.555	1	-658767472	Professional	2.0.10.356	2.0.10.356	01-07-2023	1/7/2023 8:06:52 AM	16:06:52	2.0.10.252	3				2	1	2	BlockProc2	List3	1																				2	1	1				NumberProc2	List4									7	Button1.png	Button2.png	Button3.png	Button4.png	Bluecross3.png							c	0				1	1	7	0	TrialProc	NumberList1							1	c	0	0	429245	0	c	1258	number
Wisconsin	1150	4	<?xml version="1.0"?>\n<Clock xmlns:dt="urn:schemas-microsoft-com:datatypes"><Description dt:dt="string">E-Prime Primary Realtime Clock</Description><StartTime><Timestamp dt:dt="int">0</Timestamp><DateUtc dt:dt="string">2023-01-07T08:06:51Z</DateUtc></StartTime><FrequencyChanges><FrequencyChange><Frequency dt:dt="r8">2929863</Frequency><Timestamp dt:dt="r8">20815507014</Timestamp><Current dt:dt="r8">0</Current><DateUtc dt:dt="string">2023-01-07T08:06:51Z</DateUtc></FrequencyChange></FrequencyChanges></Clock>\n	Wisconsin-1150-4	59.957	1.0.0.555	1	-658767472	Professional	2.0.10.356	2.0.10.356	01-07-2023	1/7/2023 8:06:52 AM	16:06:52	2.0.10.252	3				2	1	2	BlockProc2	List3	1																				2	1	1				NumberProc2	List4									8	Button1.png	Button2.png	Button3.png	Button4.png	Yellowtriangle2.png							z	1				10	1	8	0	TrialProc	NumberList1							0	z	0	1	433048	0	x	751	number
Wisconsin	1150	4	<?xml version="1.0"?>\n<Clock xmlns:dt="urn:schemas-microsoft-com:datatypes"><Description dt:dt="string">E-Prime Primary Realtime Clock</Description><StartTime><Timestamp dt:dt="int">0</Timestamp><DateUtc dt:dt="string">2023-01-07T08:06:51Z</DateUtc></StartTime><FrequencyChanges><FrequencyChange><Frequency dt:dt="r8">2929863</Frequency><Timestamp dt:dt="r8">20815507014</Timestamp><Current dt:dt="r8">0</Current><DateUtc dt:dt="string">2023-01-07T08:06:51Z</DateUtc></FrequencyChange></FrequencyChanges></Clock>\n	Wisconsin-1150-4	59.957	1.0.0.555	1	-658767472	Professional	2.0.10.356	2.0.10.356	01-07-2023	1/7/2023 8:06:52 AM	16:06:52	2.0.10.252	3				2	1	2	BlockProc2	List3	1																				2	1	1				NumberProc2	List4									9	Button1.png	Button2.png	Button3.png	Button4.png	Yellowcross2.png							z	0				9	1	9	0	TrialProc	NumberList1							1	z	0	1	436334	0	z	1929	number
Wisconsin	1150	4	<?xml version="1.0"?>\n<Clock xmlns:dt="urn:schemas-microsoft-com:datatypes"><Description dt:dt="string">E-Prime Primary Realtime Clock</Description><StartTime><Timestamp dt:dt="int">0</Timestamp><DateUtc dt:dt="string">2023-01-07T08:06:51Z</DateUtc></StartTime><FrequencyChanges><FrequencyChange><Frequency dt:dt="r8">2929863</Frequency><Timestamp dt:dt="r8">20815507014</Timestamp><Current dt:dt="r8">0</Current><DateUtc dt:dt="string">2023-01-07T08:06:51Z</DateUtc></FrequencyChange></FrequencyChanges></Clock>\n	Wisconsin-1150-4	59.957	1.0.0.555	1	-658767472	Professional	2.0.10.356	2.0.10.356	01-07-2023	1/7/2023 8:06:52 AM	16:06:52	2.0.10.252	3				2	1	2	BlockProc2	List3	1																				2	1	1				NumberProc2	List4									10	Button1.png	Button2.png	Button3.png	Button4.png	Redstar1.png							v	0				6	1	10	0	TrialProc	NumberList1							1	v	0	1	440804	0	v	643	number
Wisconsin	1150	4	<?xml version="1.0"?>\n<Clock xmlns:dt="urn:schemas-microsoft-com:datatypes"><Description dt:dt="string">E-Prime Primary Realtime Clock</Description><StartTime><Timestamp dt:dt="int">0</Timestamp><DateUtc dt:dt="string">2023-01-07T08:06:51Z</DateUtc></StartTime><FrequencyChanges><FrequencyChange><Frequency dt:dt="r8">2929863</Frequency><Timestamp dt:dt="r8">20815507014</Timestamp><Current dt:dt="r8">0</Current><DateUtc dt:dt="string">2023-01-07T08:06:51Z</DateUtc></FrequencyChange></FrequencyChanges></Clock>\n	Wisconsin-1150-4	59.957	1.0.0.555	1	-658767472	Professional	2.0.10.356	2.0.10.356	01-07-2023	1/7/2023 8:06:52 AM	16:06:52	2.0.10.252	3				2	1	2	BlockProc2	List3	2																				3	1	2				ShapeProc2	List4									1	Button1.png	Button2.png	Button3.png	Button4.png	Redcross2.png							c	1							0	TrialProc	ShapeList1				5	1	1	0	c	0	0	443989	0	z	1457	Shape
Wisconsin	1150	4	<?xml version="1.0"?>\n<Clock xmlns:dt="urn:schemas-microsoft-com:datatypes"><Description dt:dt="string">E-Prime Primary Realtime Clock</Description><StartTime><Timestamp dt:dt="int">0</Timestamp><DateUtc dt:dt="string">2023-01-07T08:06:51Z</DateUtc></StartTime><FrequencyChanges><FrequencyChange><Frequency dt:dt="r8">2929863</Frequency><Timestamp dt:dt="r8">20815507014</Timestamp><Current dt:dt="r8">0</Current><DateUtc dt:dt="string">2023-01-07T08:06:51Z</DateUtc></FrequencyChange></FrequencyChanges></Clock>\n	Wisconsin-1150-4	59.957	1.0.0.555	1	-658767472	Professional	2.0.10.356	2.0.10.356	01-07-2023	1/7/2023 8:06:52 AM	16:06:52	2.0.10.252	3				2	1	2	BlockProc2	List3	2																				3	1	2				ShapeProc2	List4									2	Button1.png	Button2.png	Button3.png	Button4.png	Redtriangle3.png							x	1							0	TrialProc	ShapeList1				7	1	2	0	x	1	0	447975	0	c	1055	Shape
Wisconsin	1150	4	<?xml version="1.0"?>\n<Clock xmlns:dt="urn:schemas-microsoft-com:datatypes"><Description dt:dt="string">E-Prime Primary Realtime Clock</Description><StartTime><Timestamp dt:dt="int">0</Timestamp><DateUtc dt:dt="string">2023-01-07T08:06:51Z</DateUtc></StartTime><FrequencyChanges><FrequencyChange><Frequency dt:dt="r8">2929863</Frequency><Timestamp dt:dt="r8">20815507014</Timestamp><Current dt:dt="r8">0</Current><DateUtc dt:dt="string">2023-01-07T08:06:51Z</DateUtc></FrequencyChange></FrequencyChanges></Clock>\n	Wisconsin-1150-4	59.957	1.0.0.555	1	-658767472	Professional	2.0.10.356	2.0.10.356	01-07-2023	1/7/2023 8:06:52 AM	16:06:52	2.0.10.252	3				2	1	2	BlockProc2	List3	2																				3	1	2				ShapeProc2	List4									3	Button1.png	Button2.png	Button3.png	Button4.png	Bluetriangle2.png							x	1							0	TrialProc	ShapeList1				2	1	3	0	x	0	0	451561	0	z	1373	Shape
Wisconsin	1150	4	<?xml version="1.0"?>\n<Clock xmlns:dt="urn:schemas-microsoft-com:datatypes"><Description dt:dt="string">E-Prime Primary Realtime Clock</Description><StartTime><Timestamp dt:dt="int">0</Timestamp><DateUtc dt:dt="string">2023-01-07T08:06:51Z</DateUtc></StartTime><FrequencyChanges><FrequencyChange><Frequency dt:dt="r8">2929863</Frequency><Timestamp dt:dt="r8">20815507014</Timestamp><Current dt:dt="r8">0</Current><DateUtc dt:dt="string">2023-01-07T08:06:51Z</DateUtc></FrequencyChange></FrequencyChanges></Clock>\n	Wisconsin-1150-4	59.957	1.0.0.555	1	-658767472	Professional	2.0.10.356	2.0.10.356	01-07-2023	1/7/2023 8:06:52 AM	16:06:52	2.0.10.252	3				2	1	2	BlockProc2	List3	2																				3	1	2				ShapeProc2	List4									4	Button1.png	Button2.png	Button3.png	Button4.png	Redstar3.png							v	1							0	TrialProc	ShapeList1				6	1	4	0	v	0	1	455464	0	c	1566	Shape
Wisconsin	1150	4	<?xml version="1.0"?>\n<Clock xmlns:dt="urn:schemas-microsoft-com:datatypes"><Description dt:dt="string">E-Prime Primary Realtime Clock</Description><StartTime><Timestamp dt:dt="int">0</Timestamp><DateUtc dt:dt="string">2023-01-07T08:06:51Z</DateUtc></StartTime><FrequencyChanges><FrequencyChange><Frequency dt:dt="r8">2929863</Frequency><Timestamp dt:dt="r8">20815507014</Timestamp><Current dt:dt="r8">0</Current><DateUtc dt:dt="string">2023-01-07T08:06:51Z</DateUtc></FrequencyChange></FrequencyChanges></Clock>\n	Wisconsin-1150-4	59.957	1.0.0.555	1	-658767472	Professional	2.0.10.356	2.0.10.356	01-07-2023	1/7/2023 8:06:52 AM	16:06:52	2.0.10.252	3				2	1	2	BlockProc2	List3	2																				3	1	2				ShapeProc2	List4									5	Button1.png	Button2.png	Button3.png	Button4.png	Yellowtriangle1.png							x	0							0	TrialProc	ShapeList1				10	1	5	1	x	0	1	459567	0	x	983	Shape
Wisconsin	1150	4	<?xml version="1.0"?>\n<Clock xmlns:dt="urn:schemas-microsoft-com:datatypes"><Description dt:dt="string">E-Prime Primary Realtime Clock</Description><StartTime><Timestamp dt:dt="int">0</Timestamp><DateUtc dt:dt="string">2023-01-07T08:06:51Z</DateUtc></StartTime><FrequencyChanges><FrequencyChange><Frequency dt:dt="r8">2929863</Frequency><Timestamp dt:dt="r8">20815507014</Timestamp><Current dt:dt="r8">0</Current><DateUtc dt:dt="string">2023-01-07T08:06:51Z</DateUtc></FrequencyChange></FrequencyChanges></Clock>\n	Wisconsin-1150-4	59.957	1.0.0.555	1	-658767472	Professional	2.0.10.356	2.0.10.356	01-07-2023	1/7/2023 8:06:52 AM	16:06:52	2.0.10.252	3				2	1	2	BlockProc2	List3	2																				3	1	2				ShapeProc2	List4									6	Button1.png	Button2.png	Button3.png	Button4.png	Greenstar3.png							v	1							0	TrialProc	ShapeList1				3	1	6	0	v	0	0	463086	0	z	1079	Shape
Wisconsin	1150	4	<?xml version="1.0"?>\n<Clock xmlns:dt="urn:schemas-microsoft-com:datatypes"><Description dt:dt="string">E-Prime Primary Realtime Clock</Description><StartTime><Timestamp dt:dt="int">0</Timestamp><DateUtc dt:dt="string">2023-01-07T08:06:51Z</DateUtc></StartTime><FrequencyChanges><FrequencyChange><Frequency dt:dt="r8">2929863</Frequency><Timestamp dt:dt="r8">20815507014</Timestamp><Current dt:dt="r8">0</Current><DateUtc dt:dt="string">2023-01-07T08:06:51Z</DateUtc></FrequencyChange></FrequencyChanges></Clock>\n	Wisconsin-1150-4	59.957	1.0.0.555	1	-658767472	Professional	2.0.10.356	2.0.10.356	01-07-2023	1/7/2023 8:06:52 AM	16:06:52	2.0.10.252	3				2	1	2	BlockProc2	List3	2																				3	1	2				ShapeProc2	List4									7	Button1.png	Button2.png	Button3.png	Button4.png	Yellowstar2.png							v	0							0	TrialProc	ShapeList1				9	1	7	1	v	0	1	466706	0	v	1603	Shape
Wisconsin	1150	4	<?xml version="1.0"?>\n<Clock xmlns:dt="urn:schemas-microsoft-com:datatypes"><Description dt:dt="string">E-Prime Primary Realtime Clock</Description><StartTime><Timestamp dt:dt="int">0</Timestamp><DateUtc dt:dt="string">2023-01-07T08:06:51Z</DateUtc></StartTime><FrequencyChanges><FrequencyChange><Frequency dt:dt="r8">2929863</Frequency><Timestamp dt:dt="r8">20815507014</Timestamp><Current dt:dt="r8">0</Current><DateUtc dt:dt="string">2023-01-07T08:06:51Z</DateUtc></FrequencyChange></FrequencyChanges></Clock>\n	Wisconsin-1150-4	59.957	1.0.0.555	1	-658767472	Professional	2.0.10.356	2.0.10.356	01-07-2023	1/7/2023 8:06:52 AM	16:06:52	2.0.10.252	3				2	1	2	BlockProc2	List3	2																				3	1	2				ShapeProc2	List4									8	Button1.png	Button2.png	Button3.png	Button4.png	Bluecircle3.png							z	1							0	TrialProc	ShapeList1				1	1	8	0	z	0	1	470842	0	c	1947	Shape
Wisconsin	1150	4	<?xml version="1.0"?>\n<Clock xmlns:dt="urn:schemas-microsoft-com:datatypes"><Description dt:dt="string">E-Prime Primary Realtime Clock</Description><StartTime><Timestamp dt:dt="int">0</Timestamp><DateUtc dt:dt="string">2023-01-07T08:06:51Z</DateUtc></StartTime><FrequencyChanges><FrequencyChange><Frequency dt:dt="r8">2929863</Frequency><Timestamp dt:dt="r8">20815507014</Timestamp><Current dt:dt="r8">0</Current><DateUtc dt:dt="string">2023-01-07T08:06:51Z</DateUtc></FrequencyChange></FrequencyChanges></Clock>\n	Wisconsin-1150-4	59.957	1.0.0.555	1	-658767472	Professional	2.0.10.356	2.0.10.356	01-07-2023	1/7/2023 8:06:52 AM	16:06:52	2.0.10.252	3				2	1	2	BlockProc2	List3	2																				3	1	2				ShapeProc2	List4									9	Button1.png	Button2.png	Button3.png	Button4.png	redcircle1.png							z	1							0	TrialProc	ShapeList1				4	1	9	0	z	0	1	475329	0	v	1284	Shape
Wisconsin	1150	4	<?xml version="1.0"?>\n<Clock xmlns:dt="urn:schemas-microsoft-com:datatypes"><Description dt:dt="string">E-Prime Primary Realtime Clock</Description><StartTime><Timestamp dt:dt="int">0</Timestamp><DateUtc dt:dt="string">2023-01-07T08:06:51Z</DateUtc></StartTime><FrequencyChanges><FrequencyChange><Frequency dt:dt="r8">2929863</Frequency><Timestamp dt:dt="r8">20815507014</Timestamp><Current dt:dt="r8">0</Current><DateUtc dt:dt="string">2023-01-07T08:06:51Z</DateUtc></FrequencyChange></FrequencyChanges></Clock>\n	Wisconsin-1150-4	59.957	1.0.0.555	1	-658767472	Professional	2.0.10.356	2.0.10.356	01-07-2023	1/7/2023 8:06:52 AM	16:06:52	2.0.10.252	3				2	1	2	BlockProc2	List3	2																				3	1	2				ShapeProc2	List4									10	Button1.png	Button2.png	Button3.png	Button4.png	yellowcross4.png							c	1							0	TrialProc	ShapeList1				8	1	10	0	c	0	1	479148	0	x	904	Shape
Wisconsin	1150	4	<?xml version="1.0"?>\n<Clock xmlns:dt="urn:schemas-microsoft-com:datatypes"><Description dt:dt="string">E-Prime Primary Realtime Clock</Description><StartTime><Timestamp dt:dt="int">0</Timestamp><DateUtc dt:dt="string">2023-01-07T08:06:51Z</DateUtc></StartTime><FrequencyChanges><FrequencyChange><Frequency dt:dt="r8">2929863</Frequency><Timestamp dt:dt="r8">20815507014</Timestamp><Current dt:dt="r8">0</Current><DateUtc dt:dt="string">2023-01-07T08:06:51Z</DateUtc></FrequencyChange></FrequencyChanges></Clock>\n	Wisconsin-1150-4	59.957	1.0.0.555	1	-658767472	Professional	2.0.10.356	2.0.10.356	01-07-2023	1/7/2023 8:06:52 AM	16:06:52	2.0.10.252	3				2	1	2	BlockProc2	List3	3																				1	1	3				ColorProc2	List4									1	BUTTON1.png	BUTTON2.PNG	BUTTON3.png	BUTTON4.png	Greencircle1.png				3	1	1	z	1							0	TrialProc	ColorList2							0	z	0	1	482584	0	v	2412	color
Wisconsin	1150	4	<?xml version="1.0"?>\n<Clock xmlns:dt="urn:schemas-microsoft-com:datatypes"><Description dt:dt="string">E-Prime Primary Realtime Clock</Description><StartTime><Timestamp dt:dt="int">0</Timestamp><DateUtc dt:dt="string">2023-01-07T08:06:51Z</DateUtc></StartTime><FrequencyChanges><FrequencyChange><Frequency dt:dt="r8">2929863</Frequency><Timestamp dt:dt="r8">20815507014</Timestamp><Current dt:dt="r8">0</Current><DateUtc dt:dt="string">2023-01-07T08:06:51Z</DateUtc></FrequencyChange></FrequencyChanges></Clock>\n	Wisconsin-1150-4	59.957	1.0.0.555	1	-658767472	Professional	2.0.10.356	2.0.10.356	01-07-2023	1/7/2023 8:06:52 AM	16:06:52	2.0.10.252	3				2	1	2	BlockProc2	List3	3																				1	1	3				ColorProc2	List4									2	BUTTON1.png	BUTTON2.PNG	BUTTON3.png	BUTTON4.png	bluecross1.png				1	1	2	v	1							0	TrialProc	ColorList2							0	v	1	0	487537	0	c	2467	color
Wisconsin	1150	4	<?xml version="1.0"?>\n<Clock xmlns:dt="urn:schemas-microsoft-com:datatypes"><Description dt:dt="string">E-Prime Primary Realtime Clock</Description><StartTime><Timestamp dt:dt="int">0</Timestamp><DateUtc dt:dt="string">2023-01-07T08:06:51Z</DateUtc></StartTime><FrequencyChanges><FrequencyChange><Frequency dt:dt="r8">2929863</Frequency><Timestamp dt:dt="r8">20815507014</Timestamp><Current dt:dt="r8">0</Current><DateUtc dt:dt="string">2023-01-07T08:06:51Z</DateUtc></FrequencyChange></FrequencyChanges></Clock>\n	Wisconsin-1150-4	59.957	1.0.0.555	1	-658767472	Professional	2.0.10.356	2.0.10.356	01-07-2023	1/7/2023 8:06:52 AM	16:06:52	2.0.10.252	3				2	1	2	BlockProc2	List3	3																				1	1	3				ColorProc2	List4									3	BUTTON1.png	BUTTON2.PNG	BUTTON3.png	BUTTON4.png	greencross4.png				4	1	3	z	1							0	TrialProc	ColorList2							0	z	0	1	492541	0	x	903	color
Wisconsin	1150	4	<?xml version="1.0"?>\n<Clock xmlns:dt="urn:schemas-microsoft-com:datatypes"><Description dt:dt="string">E-Prime Primary Realtime Clock</Description><StartTime><Timestamp dt:dt="int">0</Timestamp><DateUtc dt:dt="string">2023-01-07T08:06:51Z</DateUtc></StartTime><FrequencyChanges><FrequencyChange><Frequency dt:dt="r8">2929863</Frequency><Timestamp dt:dt="r8">20815507014</Timestamp><Current dt:dt="r8">0</Current><DateUtc dt:dt="string">2023-01-07T08:06:51Z</DateUtc></FrequencyChange></FrequencyChanges></Clock>\n	Wisconsin-1150-4	59.957	1.0.0.555	1	-658767472	Professional	2.0.10.356	2.0.10.356	01-07-2023	1/7/2023 8:06:52 AM	16:06:52	2.0.10.252	3				2	1	2	BlockProc2	List3	3																				1	1	3				ColorProc2	List4									4	BUTTON1.png	BUTTON2.PNG	BUTTON3.png	BUTTON4.png	redstar4.png				8	1	4	c	1							0	TrialProc	ColorList2							0	c	0	1	495977	0	v	1594	color
Wisconsin	1150	4	<?xml version="1.0"?>\n<Clock xmlns:dt="urn:schemas-microsoft-com:datatypes"><Description dt:dt="string">E-Prime Primary Realtime Clock</Description><StartTime><Timestamp dt:dt="int">0</Timestamp><DateUtc dt:dt="string">2023-01-07T08:06:51Z</DateUtc></StartTime><FrequencyChanges><FrequencyChange><Frequency dt:dt="r8">2929863</Frequency><Timestamp dt:dt="r8">20815507014</Timestamp><Current dt:dt="r8">0</Current><DateUtc dt:dt="string">2023-01-07T08:06:51Z</DateUtc></FrequencyChange></FrequencyChanges></Clock>\n	Wisconsin-1150-4	59.957	1.0.0.555	1	-658767472	Professional	2.0.10.356	2.0.10.356	01-07-2023	1/7/2023 8:06:52 AM	16:06:52	2.0.10.252	3				2	1	2	BlockProc2	List3	3																				1	1	3				ColorProc2	List4									5	BUTTON1.png	BUTTON2.PNG	BUTTON3.png	BUTTON4.png	Redcircle2.png				7	1	5	c	1							0	TrialProc	ColorList2							0	c	0	1	500113	0	z	1122	color
Wisconsin	1150	4	<?xml version="1.0"?>\n<Clock xmlns:dt="urn:schemas-microsoft-com:datatypes"><Description dt:dt="string">E-Prime Primary Realtime Clock</Description><StartTime><Timestamp dt:dt="int">0</Timestamp><DateUtc dt:dt="string">2023-01-07T08:06:51Z</DateUtc></StartTime><FrequencyChanges><FrequencyChange><Frequency dt:dt="r8">2929863</Frequency><Timestamp dt:dt="r8">20815507014</Timestamp><Current dt:dt="r8">0</Current><DateUtc dt:dt="string">2023-01-07T08:06:51Z</DateUtc></FrequencyChange></FrequencyChanges></Clock>\n	Wisconsin-1150-4	59.957	1.0.0.555	1	-658767472	Professional	2.0.10.356	2.0.10.356	01-07-2023	1/7/2023 8:06:52 AM	16:06:52	2.0.10.252	3				2	1	2	BlockProc2	List3	3																				1	1	3				ColorProc2	List4									6	BUTTON1.png	BUTTON2.PNG	BUTTON3.png	BUTTON4.png	yellowcircle2.png				9	1	6	x	0							0	TrialProc	ColorList2							1	x	0	1	503766	0	x	1341	color
Wisconsin	1150	4	<?xml version="1.0"?>\n<Clock xmlns:dt="urn:schemas-microsoft-com:datatypes"><Description dt:dt="string">E-Prime Primary Realtime Clock</Description><StartTime><Timestamp dt:dt="int">0</Timestamp><DateUtc dt:dt="string">2023-01-07T08:06:51Z</DateUtc></StartTime><FrequencyChanges><FrequencyChange><Frequency dt:dt="r8">2929863</Frequency><Timestamp dt:dt="r8">20815507014</Timestamp><Current dt:dt="r8">0</Current><DateUtc dt:dt="string">2023-01-07T08:06:51Z</DateUtc></FrequencyChange></FrequencyChanges></Clock>\n	Wisconsin-1150-4	59.957	1.0.0.555	1	-658767472	Professional	2.0.10.356	2.0.10.356	01-07-2023	1/7/2023 8:06:52 AM	16:06:52	2.0.10.252	3				2	1	2	BlockProc2	List3	3																				1	1	3				ColorProc2	List4									7	BUTTON1.png	BUTTON2.PNG	BUTTON3.png	BUTTON4.png	yellowtriangle3.png				10	1	7	x	0							0	TrialProc	ColorList2							1	x	0	0	507635	0	x	976	color
Wisconsin	1150	4	<?xml version="1.0"?>\n<Clock xmlns:dt="urn:schemas-microsoft-com:datatypes"><Description dt:dt="string">E-Prime Primary Realtime Clock</Description><StartTime><Timestamp dt:dt="int">0</Timestamp><DateUtc dt:dt="string">2023-01-07T08:06:51Z</DateUtc></StartTime><FrequencyChanges><FrequencyChange><Frequency dt:dt="r8">2929863</Frequency><Timestamp dt:dt="r8">20815507014</Timestamp><Current dt:dt="r8">0</Current><DateUtc dt:dt="string">2023-01-07T08:06:51Z</DateUtc></FrequencyChange></FrequencyChanges></Clock>\n	Wisconsin-1150-4	59.957	1.0.0.555	1	-658767472	Professional	2.0.10.356	2.0.10.356	01-07-2023	1/7/2023 8:06:52 AM	16:06:52	2.0.10.252	3				2	1	2	BlockProc2	List3	3																				1	1	3				ColorProc2	List4									8	BUTTON1.png	BUTTON2.PNG	BUTTON3.png	BUTTON4.png	greenstar4.png				5	1	8	z	1							0	TrialProc	ColorList2							0	z	0	1	511138	0	v	1232	color
Wisconsin	1150	4	<?xml version="1.0"?>\n<Clock xmlns:dt="urn:schemas-microsoft-com:datatypes"><Description dt:dt="string">E-Prime Primary Realtime Clock</Description><StartTime><Timestamp dt:dt="int">0</Timestamp><DateUtc dt:dt="string">2023-01-07T08:06:51Z</DateUtc></StartTime><FrequencyChanges><FrequencyChange><Frequency dt:dt="r8">2929863</Frequency><Timestamp dt:dt="r8">20815507014</Timestamp><Current dt:dt="r8">0</Current><DateUtc dt:dt="string">2023-01-07T08:06:51Z</DateUtc></FrequencyChange></FrequencyChanges></Clock>\n	Wisconsin-1150-4	59.957	1.0.0.555	1	-658767472	Professional	2.0.10.356	2.0.10.356	01-07-2023	1/7/2023 8:06:52 AM	16:06:52	2.0.10.252	3				2	1	2	BlockProc2	List3	3																				1	1	3				ColorProc2	List4									9	BUTTON1.png	BUTTON2.PNG	BUTTON3.png	BUTTON4.png	greentriangle2.png				6	1	9	z	0							0	TrialProc	ColorList2							1	z	0	0	514907	0	z	967	color
Wisconsin	1150	4	<?xml version="1.0"?>\n<Clock xmlns:dt="urn:schemas-microsoft-com:datatypes"><Description dt:dt="string">E-Prime Primary Realtime Clock</Description><StartTime><Timestamp dt:dt="int">0</Timestamp><DateUtc dt:dt="string">2023-01-07T08:06:51Z</DateUtc></StartTime><FrequencyChanges><FrequencyChange><Frequency dt:dt="r8">2929863</Frequency><Timestamp dt:dt="r8">20815507014</Timestamp><Current dt:dt="r8">0</Current><DateUtc dt:dt="string">2023-01-07T08:06:51Z</DateUtc></FrequencyChange></FrequencyChanges></Clock>\n	Wisconsin-1150-4	59.957	1.0.0.555	1	-658767472	Professional	2.0.10.356	2.0.10.356	01-07-2023	1/7/2023 8:06:52 AM	16:06:52	2.0.10.252	3				2	1	2	BlockProc2	List3	3																				1	1	3				ColorProc2	List4									10	BUTTON1.png	BUTTON2.PNG	BUTTON3.png	BUTTON4.png	bluestar3.png				2	1	10	v	0							0	TrialProc	ColorList2							1	v	0	1	518410	0	v	1544	color
