ExperimentName	Subject	Session	Clock.Information	DataFile.Basename	Display.RefreshRate	ExperimentVersion	Group	RandomSeed	RuntimeCapabilities	RuntimeVersion	RuntimeVersionExpected	SessionDate	SessionStartDateTimeUtc	SessionTime	Slide1.DEVICE	Slide2.DEVICE	Slide3.DEVICE	StudioVersion	Welcome.DEVICE	Block	GetReady.DEVICE	List1	List1.Cycle	List1.Sample	List2	List2.Cycle	List2.Sample	PracticeReady.DEVICE	Procedure[Block]	Running[Block]	Trial	CardIMG1[Trial]	CardIMG2[Trial]	CardIMG3[Trial]	CardIMG4[Trial]	CardStim[Trial]	Category	CorrectAnswer[Trial]	List3	List3.Cycle	List3.Sample	List4	List4.Cycle	List4.Sample	PracticeList	PracticeList.Cycle	PracticeList.Sample	Procedure[Trial]	Running[Trial]	Slide4.ACC	Slide4.CRESP	Slide4.DEVICE	Slide4.DurationError	Slide4.OnsetDelay	Slide4.OnsetTime	Slide4.OnsetToOnsetTime	Slide4.RESP	Slide4.RT	Slide4.RTTime	SubTrial	CardIMG1[SubTrial]	CardIMG2[SubTrial]	CardIMG3[SubTrial]	CardIMG4[SubTrial]	CardStim[SubTrial]	ColorList	ColorList.Cycle	ColorList.Sample	ColorList2	ColorList2.Cycle	ColorList2.Sample	CorrectAnswer[SubTrial]	NonPerseverativeError	NumberList	NumberList.Cycle	NumberList.Sample	NumberList2	NumberList2.Cycle	NumberList2.Sample	PerseverativeError	Procedure[SubTrial]	Running[SubTrial]	ShapeList	ShapeList.Cycle	ShapeList.Sample	ShapeList2	ShapeList2.Cycle	ShapeList2.Sample	Slide5.ACC	Slide5.CRESP	Slide5.DEVICE	Slide5.DurationError	Slide5.OnsetDelay	Slide5.OnsetTime	Slide5.OnsetToOnsetTime	Slide5.RESP	Slide5.RT	Slide5.RTTime	TrialType
Wisconsin	1155	4	<?xml version="1.0"?>\n<Clock xmlns:dt="urn:schemas-microsoft-com:datatypes"><Description dt:dt="string">E-Prime Primary Realtime Clock</Description><StartTime><Timestamp dt:dt="int">0</Timestamp><DateUtc dt:dt="string">2023-02-11T03:28:40Z</DateUtc></StartTime><FrequencyChanges><FrequencyChange><Frequency dt:dt="r8">10000000</Frequency><Timestamp dt:dt="r8">607444700569</Timestamp><Current dt:dt="r8">0</Current><DateUtc dt:dt="string">2023-02-11T03:28:40Z</DateUtc></FrequencyChange></FrequencyChanges></Clock>\n	Wisconsin-1155-4	60.039	1.0.0.262	1	1857011325	Full	3.0.3.80	3.0.3.80	02-11-2023	2/11/2023 3:28:41 AM	11:28:41	Keyboard	Keyboard	Keyboard	3.0.3.82	Keyboard	1	Keyboard	1	1	1				Keyboard	Practiceploc	List1	1	Button1.png	Button2.png	Button3.png	Button4.png	Greencircle3.png	顏色	{button1}							1	1	1	PracticeTrialProc	PracticeList	0	{button1}	Button	2	50	50825	0	{Button3}	2128	52953																																								
Wisconsin	1155	4	<?xml version="1.0"?>\n<Clock xmlns:dt="urn:schemas-microsoft-com:datatypes"><Description dt:dt="string">E-Prime Primary Realtime Clock</Description><StartTime><Timestamp dt:dt="int">0</Timestamp><DateUtc dt:dt="string">2023-02-11T03:28:40Z</DateUtc></StartTime><FrequencyChanges><FrequencyChange><Frequency dt:dt="r8">10000000</Frequency><Timestamp dt:dt="r8">607444700569</Timestamp><Current dt:dt="r8">0</Current><DateUtc dt:dt="string">2023-02-11T03:28:40Z</DateUtc></FrequencyChange></FrequencyChanges></Clock>\n	Wisconsin-1155-4	60.039	1.0.0.262	1	1857011325	Full	3.0.3.80	3.0.3.80	02-11-2023	2/11/2023 3:28:41 AM	11:28:41	Keyboard	Keyboard	Keyboard	3.0.3.82	Keyboard	1	Keyboard	1	1	1				Keyboard	Practiceploc	List1	2	Button1.png	Button2.png	Button3.png	Button4.png	Redstar2.png	顏色	{button3}							2	1	2	PracticeTrialProc	PracticeList	1	{button3}	Button	2	33	55590	0	{Button3}	3194	58784																																								
Wisconsin	1155	4	<?xml version="1.0"?>\n<Clock xmlns:dt="urn:schemas-microsoft-com:datatypes"><Description dt:dt="string">E-Prime Primary Realtime Clock</Description><StartTime><Timestamp dt:dt="int">0</Timestamp><DateUtc dt:dt="string">2023-02-11T03:28:40Z</DateUtc></StartTime><FrequencyChanges><FrequencyChange><Frequency dt:dt="r8">10000000</Frequency><Timestamp dt:dt="r8">607444700569</Timestamp><Current dt:dt="r8">0</Current><DateUtc dt:dt="string">2023-02-11T03:28:40Z</DateUtc></FrequencyChange></FrequencyChanges></Clock>\n	Wisconsin-1155-4	60.039	1.0.0.262	1	1857011325	Full	3.0.3.80	3.0.3.80	02-11-2023	2/11/2023 3:28:41 AM	11:28:41	Keyboard	Keyboard	Keyboard	3.0.3.82	Keyboard	1	Keyboard	1	1	1				Keyboard	Practiceploc	List1	3	Button1.png	Button2.png	Button3.png	Button4.png	Bluetriangle1.png	形狀	{button2}							3	1	3	PracticeTrialProc	PracticeList	1	{button2}	Button	10	33	61372	0	{Button2}	1668	63040																																								
Wisconsin	1155	4	<?xml version="1.0"?>\n<Clock xmlns:dt="urn:schemas-microsoft-com:datatypes"><Description dt:dt="string">E-Prime Primary Realtime Clock</Description><StartTime><Timestamp dt:dt="int">0</Timestamp><DateUtc dt:dt="string">2023-02-11T03:28:40Z</DateUtc></StartTime><FrequencyChanges><FrequencyChange><Frequency dt:dt="r8">10000000</Frequency><Timestamp dt:dt="r8">607444700569</Timestamp><Current dt:dt="r8">0</Current><DateUtc dt:dt="string">2023-02-11T03:28:40Z</DateUtc></FrequencyChange></FrequencyChanges></Clock>\n	Wisconsin-1155-4	60.039	1.0.0.262	1	1857011325	Full	3.0.3.80	3.0.3.80	02-11-2023	2/11/2023 3:28:41 AM	11:28:41	Keyboard	Keyboard	Keyboard	3.0.3.82	Keyboard	1	Keyboard	1	1	1				Keyboard	Practiceploc	List1	4	Button1.png	Button2.png	Button3.png	Button4.png	greenstar2.png	形狀	{Button4}							4	1	4	PracticeTrialProc	PracticeList	1	{Button4}	Button	9	33	65621	0	{Button4}	3283	68904																																								
Wisconsin	1155	4	<?xml version="1.0"?>\n<Clock xmlns:dt="urn:schemas-microsoft-com:datatypes"><Description dt:dt="string">E-Prime Primary Realtime Clock</Description><StartTime><Timestamp dt:dt="int">0</Timestamp><DateUtc dt:dt="string">2023-02-11T03:28:40Z</DateUtc></StartTime><FrequencyChanges><FrequencyChange><Frequency dt:dt="r8">10000000</Frequency><Timestamp dt:dt="r8">607444700569</Timestamp><Current dt:dt="r8">0</Current><DateUtc dt:dt="string">2023-02-11T03:28:40Z</DateUtc></FrequencyChange></FrequencyChanges></Clock>\n	Wisconsin-1155-4	60.039	1.0.0.262	1	1857011325	Full	3.0.3.80	3.0.3.80	02-11-2023	2/11/2023 3:28:41 AM	11:28:41	Keyboard	Keyboard	Keyboard	3.0.3.82	Keyboard	1	Keyboard	1	1	1				Keyboard	Practiceploc	List1	5	Button1.png	Button2.png	Button3.png	Button4.png	BlueCross4.png	圖案數目	{Button2}							5	1	5	PracticeTrialProc	PracticeList	1	{Button2}	Button	1	34	71487	0	{Button2}	2169	73656																																								
Wisconsin	1155	4	<?xml version="1.0"?>\n<Clock xmlns:dt="urn:schemas-microsoft-com:datatypes"><Description dt:dt="string">E-Prime Primary Realtime Clock</Description><StartTime><Timestamp dt:dt="int">0</Timestamp><DateUtc dt:dt="string">2023-02-11T03:28:40Z</DateUtc></StartTime><FrequencyChanges><FrequencyChange><Frequency dt:dt="r8">10000000</Frequency><Timestamp dt:dt="r8">607444700569</Timestamp><Current dt:dt="r8">0</Current><DateUtc dt:dt="string">2023-02-11T03:28:40Z</DateUtc></FrequencyChange></FrequencyChanges></Clock>\n	Wisconsin-1155-4	60.039	1.0.0.262	1	1857011325	Full	3.0.3.80	3.0.3.80	02-11-2023	2/11/2023 3:28:41 AM	11:28:41	Keyboard	Keyboard	Keyboard	3.0.3.82	Keyboard	1	Keyboard	1	1	1				Keyboard	Practiceploc	List1	6	Button1.png	Button2.png	Button3.png	Button4.png	yellowcircle2.png	圖案數目	{Button1}							6	1	6	PracticeTrialProc	PracticeList	1	{Button1}	Button	10	33	76235	0	{Button1}	3245	79480																																								
Wisconsin	1155	4	<?xml version="1.0"?>\n<Clock xmlns:dt="urn:schemas-microsoft-com:datatypes"><Description dt:dt="string">E-Prime Primary Realtime Clock</Description><StartTime><Timestamp dt:dt="int">0</Timestamp><DateUtc dt:dt="string">2023-02-11T03:28:40Z</DateUtc></StartTime><FrequencyChanges><FrequencyChange><Frequency dt:dt="r8">10000000</Frequency><Timestamp dt:dt="r8">607444700569</Timestamp><Current dt:dt="r8">0</Current><DateUtc dt:dt="string">2023-02-11T03:28:40Z</DateUtc></FrequencyChange></FrequencyChanges></Clock>\n	Wisconsin-1155-4	60.039	1.0.0.262	1	1857011325	Full	3.0.3.80	3.0.3.80	02-11-2023	2/11/2023 3:28:41 AM	11:28:41	Keyboard	Keyboard	Keyboard	3.0.3.82	Keyboard	2					1	1	1		BlockProc	List2	1								1	1	1							ColorProc	List3											1	BUTTON1.png	BUTTON2.PNG	BUTTON3.png	BUTTON4.png	bluecross2.png	2	1	1				{button4}	0							0	TrialProc	ColorList							1	{button4}	Button	2	49	84233	0	{Button4}	1991	86224	Color
Wisconsin	1155	4	<?xml version="1.0"?>\n<Clock xmlns:dt="urn:schemas-microsoft-com:datatypes"><Description dt:dt="string">E-Prime Primary Realtime Clock</Description><StartTime><Timestamp dt:dt="int">0</Timestamp><DateUtc dt:dt="string">2023-02-11T03:28:40Z</DateUtc></StartTime><FrequencyChanges><FrequencyChange><Frequency dt:dt="r8">10000000</Frequency><Timestamp dt:dt="r8">607444700569</Timestamp><Current dt:dt="r8">0</Current><DateUtc dt:dt="string">2023-02-11T03:28:40Z</DateUtc></FrequencyChange></FrequencyChanges></Clock>\n	Wisconsin-1155-4	60.039	1.0.0.262	1	1857011325	Full	3.0.3.80	3.0.3.80	02-11-2023	2/11/2023 3:28:41 AM	11:28:41	Keyboard	Keyboard	Keyboard	3.0.3.82	Keyboard	2					1	1	1		BlockProc	List2	1								1	1	1							ColorProc	List3											2	BUTTON1.png	BUTTON2.PNG	BUTTON3.png	BUTTON4.png	bluetriangle3.png	3	1	2				{button4}	0							0	TrialProc	ColorList							1	{button4}	Button	1	33	88799	0	{Button4}	1081	89880	Color
Wisconsin	1155	4	<?xml version="1.0"?>\n<Clock xmlns:dt="urn:schemas-microsoft-com:datatypes"><Description dt:dt="string">E-Prime Primary Realtime Clock</Description><StartTime><Timestamp dt:dt="int">0</Timestamp><DateUtc dt:dt="string">2023-02-11T03:28:40Z</DateUtc></StartTime><FrequencyChanges><FrequencyChange><Frequency dt:dt="r8">10000000</Frequency><Timestamp dt:dt="r8">607444700569</Timestamp><Current dt:dt="r8">0</Current><DateUtc dt:dt="string">2023-02-11T03:28:40Z</DateUtc></FrequencyChange></FrequencyChanges></Clock>\n	Wisconsin-1155-4	60.039	1.0.0.262	1	1857011325	Full	3.0.3.80	3.0.3.80	02-11-2023	2/11/2023 3:28:41 AM	11:28:41	Keyboard	Keyboard	Keyboard	3.0.3.82	Keyboard	2					1	1	1		BlockProc	List2	1								1	1	1							ColorProc	List3											3	BUTTON1.png	BUTTON2.PNG	BUTTON3.png	BUTTON4.png	greenstar2.png	5	1	3				{button1}	0							0	TrialProc	ColorList							1	{button1}	Button	2	49	92481	0	{Button1}	1175	93656	Color
Wisconsin	1155	4	<?xml version="1.0"?>\n<Clock xmlns:dt="urn:schemas-microsoft-com:datatypes"><Description dt:dt="string">E-Prime Primary Realtime Clock</Description><StartTime><Timestamp dt:dt="int">0</Timestamp><DateUtc dt:dt="string">2023-02-11T03:28:40Z</DateUtc></StartTime><FrequencyChanges><FrequencyChange><Frequency dt:dt="r8">10000000</Frequency><Timestamp dt:dt="r8">607444700569</Timestamp><Current dt:dt="r8">0</Current><DateUtc dt:dt="string">2023-02-11T03:28:40Z</DateUtc></FrequencyChange></FrequencyChanges></Clock>\n	Wisconsin-1155-4	60.039	1.0.0.262	1	1857011325	Full	3.0.3.80	3.0.3.80	02-11-2023	2/11/2023 3:28:41 AM	11:28:41	Keyboard	Keyboard	Keyboard	3.0.3.82	Keyboard	2					1	1	1		BlockProc	List2	1								1	1	1							ColorProc	List3											4	BUTTON1.png	BUTTON2.PNG	BUTTON3.png	BUTTON4.png	greentriangle3.png	7	1	4				{button1}	0							0	TrialProc	ColorList							1	{button1}	Button	9	33	96230	0	{Button1}	1650	97880	Color
Wisconsin	1155	4	<?xml version="1.0"?>\n<Clock xmlns:dt="urn:schemas-microsoft-com:datatypes"><Description dt:dt="string">E-Prime Primary Realtime Clock</Description><StartTime><Timestamp dt:dt="int">0</Timestamp><DateUtc dt:dt="string">2023-02-11T03:28:40Z</DateUtc></StartTime><FrequencyChanges><FrequencyChange><Frequency dt:dt="r8">10000000</Frequency><Timestamp dt:dt="r8">607444700569</Timestamp><Current dt:dt="r8">0</Current><DateUtc dt:dt="string">2023-02-11T03:28:40Z</DateUtc></FrequencyChange></FrequencyChanges></Clock>\n	Wisconsin-1155-4	60.039	1.0.0.262	1	1857011325	Full	3.0.3.80	3.0.3.80	02-11-2023	2/11/2023 3:28:41 AM	11:28:41	Keyboard	Keyboard	Keyboard	3.0.3.82	Keyboard	2					1	1	1		BlockProc	List2	1								1	1	1							ColorProc	List3											5	BUTTON1.png	BUTTON2.PNG	BUTTON3.png	BUTTON4.png	greentriangle1.png	6	1	5				{button1}	0							0	TrialProc	ColorList							1	{button1}	Button	2	33	100446	0	{Button1}	1266	101712	Color
Wisconsin	1155	4	<?xml version="1.0"?>\n<Clock xmlns:dt="urn:schemas-microsoft-com:datatypes"><Description dt:dt="string">E-Prime Primary Realtime Clock</Description><StartTime><Timestamp dt:dt="int">0</Timestamp><DateUtc dt:dt="string">2023-02-11T03:28:40Z</DateUtc></StartTime><FrequencyChanges><FrequencyChange><Frequency dt:dt="r8">10000000</Frequency><Timestamp dt:dt="r8">607444700569</Timestamp><Current dt:dt="r8">0</Current><DateUtc dt:dt="string">2023-02-11T03:28:40Z</DateUtc></FrequencyChange></FrequencyChanges></Clock>\n	Wisconsin-1155-4	60.039	1.0.0.262	1	1857011325	Full	3.0.3.80	3.0.3.80	02-11-2023	2/11/2023 3:28:41 AM	11:28:41	Keyboard	Keyboard	Keyboard	3.0.3.82	Keyboard	2					1	1	1		BlockProc	List2	1								1	1	1							ColorProc	List3											6	BUTTON1.png	BUTTON2.PNG	BUTTON3.png	BUTTON4.png	yellowcircle1.png	9	1	6				{button2}	0							0	TrialProc	ColorList							1	{button2}	Button	9	34	104279	0	{Button2}	1466	105745	Color
Wisconsin	1155	4	<?xml version="1.0"?>\n<Clock xmlns:dt="urn:schemas-microsoft-com:datatypes"><Description dt:dt="string">E-Prime Primary Realtime Clock</Description><StartTime><Timestamp dt:dt="int">0</Timestamp><DateUtc dt:dt="string">2023-02-11T03:28:40Z</DateUtc></StartTime><FrequencyChanges><FrequencyChange><Frequency dt:dt="r8">10000000</Frequency><Timestamp dt:dt="r8">607444700569</Timestamp><Current dt:dt="r8">0</Current><DateUtc dt:dt="string">2023-02-11T03:28:40Z</DateUtc></FrequencyChange></FrequencyChanges></Clock>\n	Wisconsin-1155-4	60.039	1.0.0.262	1	1857011325	Full	3.0.3.80	3.0.3.80	02-11-2023	2/11/2023 3:28:41 AM	11:28:41	Keyboard	Keyboard	Keyboard	3.0.3.82	Keyboard	2					1	1	1		BlockProc	List2	1								1	1	1							ColorProc	List3											7	BUTTON1.png	BUTTON2.PNG	BUTTON3.png	BUTTON4.png	yellowstar3.png	10	1	7				{button2}	0							0	TrialProc	ColorList							1	{button2}	Button	9	33	108311	0	{Button2}	833	109144	Color
Wisconsin	1155	4	<?xml version="1.0"?>\n<Clock xmlns:dt="urn:schemas-microsoft-com:datatypes"><Description dt:dt="string">E-Prime Primary Realtime Clock</Description><StartTime><Timestamp dt:dt="int">0</Timestamp><DateUtc dt:dt="string">2023-02-11T03:28:40Z</DateUtc></StartTime><FrequencyChanges><FrequencyChange><Frequency dt:dt="r8">10000000</Frequency><Timestamp dt:dt="r8">607444700569</Timestamp><Current dt:dt="r8">0</Current><DateUtc dt:dt="string">2023-02-11T03:28:40Z</DateUtc></FrequencyChange></FrequencyChanges></Clock>\n	Wisconsin-1155-4	60.039	1.0.0.262	1	1857011325	Full	3.0.3.80	3.0.3.80	02-11-2023	2/11/2023 3:28:41 AM	11:28:41	Keyboard	Keyboard	Keyboard	3.0.3.82	Keyboard	2					1	1	1		BlockProc	List2	1								1	1	1							ColorProc	List3											8	BUTTON1.png	BUTTON2.PNG	BUTTON3.png	BUTTON4.png	greencircle3.png	4	1	8				{button1}	0							0	TrialProc	ColorList							1	{button1}	Button	9	33	111727	0	{Button1}	1025	112752	Color
Wisconsin	1155	4	<?xml version="1.0"?>\n<Clock xmlns:dt="urn:schemas-microsoft-com:datatypes"><Description dt:dt="string">E-Prime Primary Realtime Clock</Description><StartTime><Timestamp dt:dt="int">0</Timestamp><DateUtc dt:dt="string">2023-02-11T03:28:40Z</DateUtc></StartTime><FrequencyChanges><FrequencyChange><Frequency dt:dt="r8">10000000</Frequency><Timestamp dt:dt="r8">607444700569</Timestamp><Current dt:dt="r8">0</Current><DateUtc dt:dt="string">2023-02-11T03:28:40Z</DateUtc></FrequencyChange></FrequencyChanges></Clock>\n	Wisconsin-1155-4	60.039	1.0.0.262	1	1857011325	Full	3.0.3.80	3.0.3.80	02-11-2023	2/11/2023 3:28:41 AM	11:28:41	Keyboard	Keyboard	Keyboard	3.0.3.82	Keyboard	2					1	1	1		BlockProc	List2	1								1	1	1							ColorProc	List3											9	BUTTON1.png	BUTTON2.PNG	BUTTON3.png	BUTTON4.png	bluecircle1.png	1	1	9				{button4}	0							0	TrialProc	ColorList							1	{button4}	Button	9	33	115326	0	{Button4}	1763	117089	Color
Wisconsin	1155	4	<?xml version="1.0"?>\n<Clock xmlns:dt="urn:schemas-microsoft-com:datatypes"><Description dt:dt="string">E-Prime Primary Realtime Clock</Description><StartTime><Timestamp dt:dt="int">0</Timestamp><DateUtc dt:dt="string">2023-02-11T03:28:40Z</DateUtc></StartTime><FrequencyChanges><FrequencyChange><Frequency dt:dt="r8">10000000</Frequency><Timestamp dt:dt="r8">607444700569</Timestamp><Current dt:dt="r8">0</Current><DateUtc dt:dt="string">2023-02-11T03:28:40Z</DateUtc></FrequencyChange></FrequencyChanges></Clock>\n	Wisconsin-1155-4	60.039	1.0.0.262	1	1857011325	Full	3.0.3.80	3.0.3.80	02-11-2023	2/11/2023 3:28:41 AM	11:28:41	Keyboard	Keyboard	Keyboard	3.0.3.82	Keyboard	2					1	1	1		BlockProc	List2	1								1	1	1							ColorProc	List3											10	BUTTON1.png	BUTTON2.PNG	BUTTON3.png	BUTTON4.png	redcircle3.png	8	1	10				{button3}	0							0	TrialProc	ColorList							1	{button3}	Button	10	49	119691	0	{Button3}	733	120424	Color
Wisconsin	1155	4	<?xml version="1.0"?>\n<Clock xmlns:dt="urn:schemas-microsoft-com:datatypes"><Description dt:dt="string">E-Prime Primary Realtime Clock</Description><StartTime><Timestamp dt:dt="int">0</Timestamp><DateUtc dt:dt="string">2023-02-11T03:28:40Z</DateUtc></StartTime><FrequencyChanges><FrequencyChange><Frequency dt:dt="r8">10000000</Frequency><Timestamp dt:dt="r8">607444700569</Timestamp><Current dt:dt="r8">0</Current><DateUtc dt:dt="string">2023-02-11T03:28:40Z</DateUtc></FrequencyChange></FrequencyChanges></Clock>\n	Wisconsin-1155-4	60.039	1.0.0.262	1	1857011325	Full	3.0.3.80	3.0.3.80	02-11-2023	2/11/2023 3:28:41 AM	11:28:41	Keyboard	Keyboard	Keyboard	3.0.3.82	Keyboard	2					1	1	1		BlockProc	List2	2								2	1	2							ShapeProc	List3											1	Button1.png	Button2.png	Button3.png	Button4.png	Bluecross4.png							{Button3}	0							0	TrialProc	ShapeList	2	1	1				0	{Button3}	Button	10	33	123007	0	{Button4}	2017	125024	Shape
Wisconsin	1155	4	<?xml version="1.0"?>\n<Clock xmlns:dt="urn:schemas-microsoft-com:datatypes"><Description dt:dt="string">E-Prime Primary Realtime Clock</Description><StartTime><Timestamp dt:dt="int">0</Timestamp><DateUtc dt:dt="string">2023-02-11T03:28:40Z</DateUtc></StartTime><FrequencyChanges><FrequencyChange><Frequency dt:dt="r8">10000000</Frequency><Timestamp dt:dt="r8">607444700569</Timestamp><Current dt:dt="r8">0</Current><DateUtc dt:dt="string">2023-02-11T03:28:40Z</DateUtc></FrequencyChange></FrequencyChanges></Clock>\n	Wisconsin-1155-4	60.039	1.0.0.262	1	1857011325	Full	3.0.3.80	3.0.3.80	02-11-2023	2/11/2023 3:28:41 AM	11:28:41	Keyboard	Keyboard	Keyboard	3.0.3.82	Keyboard	2					1	1	1		BlockProc	List2	2								2	1	2							ShapeProc	List3											2	Button1.png	Button2.png	Button3.png	Button4.png	Redcross4.png							{Button3}	0							0	TrialProc	ShapeList	6	1	2				1	{Button3}	Button	10	33	127606	0	{Button3}	1082	128688	Shape
Wisconsin	1155	4	<?xml version="1.0"?>\n<Clock xmlns:dt="urn:schemas-microsoft-com:datatypes"><Description dt:dt="string">E-Prime Primary Realtime Clock</Description><StartTime><Timestamp dt:dt="int">0</Timestamp><DateUtc dt:dt="string">2023-02-11T03:28:40Z</DateUtc></StartTime><FrequencyChanges><FrequencyChange><Frequency dt:dt="r8">10000000</Frequency><Timestamp dt:dt="r8">607444700569</Timestamp><Current dt:dt="r8">0</Current><DateUtc dt:dt="string">2023-02-11T03:28:40Z</DateUtc></FrequencyChange></FrequencyChanges></Clock>\n	Wisconsin-1155-4	60.039	1.0.0.262	1	1857011325	Full	3.0.3.80	3.0.3.80	02-11-2023	2/11/2023 3:28:41 AM	11:28:41	Keyboard	Keyboard	Keyboard	3.0.3.82	Keyboard	2					1	1	1		BlockProc	List2	2								2	1	2							ShapeProc	List3											3	Button1.png	Button2.png	Button3.png	Button4.png	Greentriangle4.png							{Button2}	0							0	TrialProc	ShapeList	4	1	3				1	{Button2}	Button	10	33	131272	0	{Button2}	3360	134632	Shape
Wisconsin	1155	4	<?xml version="1.0"?>\n<Clock xmlns:dt="urn:schemas-microsoft-com:datatypes"><Description dt:dt="string">E-Prime Primary Realtime Clock</Description><StartTime><Timestamp dt:dt="int">0</Timestamp><DateUtc dt:dt="string">2023-02-11T03:28:40Z</DateUtc></StartTime><FrequencyChanges><FrequencyChange><Frequency dt:dt="r8">10000000</Frequency><Timestamp dt:dt="r8">607444700569</Timestamp><Current dt:dt="r8">0</Current><DateUtc dt:dt="string">2023-02-11T03:28:40Z</DateUtc></FrequencyChange></FrequencyChanges></Clock>\n	Wisconsin-1155-4	60.039	1.0.0.262	1	1857011325	Full	3.0.3.80	3.0.3.80	02-11-2023	2/11/2023 3:28:41 AM	11:28:41	Keyboard	Keyboard	Keyboard	3.0.3.82	Keyboard	2					1	1	1		BlockProc	List2	2								2	1	2							ShapeProc	List3											4	Button1.png	Button2.png	Button3.png	Button4.png	Redtriangle1.png							{Button2}	0							0	TrialProc	ShapeList	7	1	4				1	{Button2}	Button	9	33	137204	0	{Button2}	868	138072	Shape
Wisconsin	1155	4	<?xml version="1.0"?>\n<Clock xmlns:dt="urn:schemas-microsoft-com:datatypes"><Description dt:dt="string">E-Prime Primary Realtime Clock</Description><StartTime><Timestamp dt:dt="int">0</Timestamp><DateUtc dt:dt="string">2023-02-11T03:28:40Z</DateUtc></StartTime><FrequencyChanges><FrequencyChange><Frequency dt:dt="r8">10000000</Frequency><Timestamp dt:dt="r8">607444700569</Timestamp><Current dt:dt="r8">0</Current><DateUtc dt:dt="string">2023-02-11T03:28:40Z</DateUtc></FrequencyChange></FrequencyChanges></Clock>\n	Wisconsin-1155-4	60.039	1.0.0.262	1	1857011325	Full	3.0.3.80	3.0.3.80	02-11-2023	2/11/2023 3:28:41 AM	11:28:41	Keyboard	Keyboard	Keyboard	3.0.3.82	Keyboard	2					1	1	1		BlockProc	List2	2								2	1	2							ShapeProc	List3											5	Button1.png	Button2.png	Button3.png	Button4.png	Yellowstar1.png							{Button4}	0							0	TrialProc	ShapeList	9	1	5				1	{Button4}	Button	9	33	140653	0	{Button4}	2115	142768	Shape
Wisconsin	1155	4	<?xml version="1.0"?>\n<Clock xmlns:dt="urn:schemas-microsoft-com:datatypes"><Description dt:dt="string">E-Prime Primary Realtime Clock</Description><StartTime><Timestamp dt:dt="int">0</Timestamp><DateUtc dt:dt="string">2023-02-11T03:28:40Z</DateUtc></StartTime><FrequencyChanges><FrequencyChange><Frequency dt:dt="r8">10000000</Frequency><Timestamp dt:dt="r8">607444700569</Timestamp><Current dt:dt="r8">0</Current><DateUtc dt:dt="string">2023-02-11T03:28:40Z</DateUtc></FrequencyChange></FrequencyChanges></Clock>\n	Wisconsin-1155-4	60.039	1.0.0.262	1	1857011325	Full	3.0.3.80	3.0.3.80	02-11-2023	2/11/2023 3:28:41 AM	11:28:41	Keyboard	Keyboard	Keyboard	3.0.3.82	Keyboard	2					1	1	1		BlockProc	List2	2								2	1	2							ShapeProc	List3											6	Button1.png	Button2.png	Button3.png	Button4.png	Redcross1.png							{Button3}	0							0	TrialProc	ShapeList	5	1	6				1	{Button3}	Button	1	33	145352	0	{Button3}	1192	146544	Shape
Wisconsin	1155	4	<?xml version="1.0"?>\n<Clock xmlns:dt="urn:schemas-microsoft-com:datatypes"><Description dt:dt="string">E-Prime Primary Realtime Clock</Description><StartTime><Timestamp dt:dt="int">0</Timestamp><DateUtc dt:dt="string">2023-02-11T03:28:40Z</DateUtc></StartTime><FrequencyChanges><FrequencyChange><Frequency dt:dt="r8">10000000</Frequency><Timestamp dt:dt="r8">607444700569</Timestamp><Current dt:dt="r8">0</Current><DateUtc dt:dt="string">2023-02-11T03:28:40Z</DateUtc></FrequencyChange></FrequencyChanges></Clock>\n	Wisconsin-1155-4	60.039	1.0.0.262	1	1857011325	Full	3.0.3.80	3.0.3.80	02-11-2023	2/11/2023 3:28:41 AM	11:28:41	Keyboard	Keyboard	Keyboard	3.0.3.82	Keyboard	2					1	1	1		BlockProc	List2	2								2	1	2							ShapeProc	List3											7	Button1.png	Button2.png	Button3.png	Button4.png	Yellowstar4.png							{Button4}	0							0	TrialProc	ShapeList	10	1	7				1	{Button4}	Button	9	34	149118	0	{Button4}	1955	151073	Shape
Wisconsin	1155	4	<?xml version="1.0"?>\n<Clock xmlns:dt="urn:schemas-microsoft-com:datatypes"><Description dt:dt="string">E-Prime Primary Realtime Clock</Description><StartTime><Timestamp dt:dt="int">0</Timestamp><DateUtc dt:dt="string">2023-02-11T03:28:40Z</DateUtc></StartTime><FrequencyChanges><FrequencyChange><Frequency dt:dt="r8">10000000</Frequency><Timestamp dt:dt="r8">607444700569</Timestamp><Current dt:dt="r8">0</Current><DateUtc dt:dt="string">2023-02-11T03:28:40Z</DateUtc></FrequencyChange></FrequencyChanges></Clock>\n	Wisconsin-1155-4	60.039	1.0.0.262	1	1857011325	Full	3.0.3.80	3.0.3.80	02-11-2023	2/11/2023 3:28:41 AM	11:28:41	Keyboard	Keyboard	Keyboard	3.0.3.82	Keyboard	2					1	1	1		BlockProc	List2	2								2	1	2							ShapeProc	List3											8	Button1.png	Button2.png	Button3.png	Button4.png	Greencross1.png							{Button3}	0							0	TrialProc	ShapeList	3	1	8				1	{Button3}	Button	10	49	153666	0	{Button3}	2006	155672	Shape
Wisconsin	1155	4	<?xml version="1.0"?>\n<Clock xmlns:dt="urn:schemas-microsoft-com:datatypes"><Description dt:dt="string">E-Prime Primary Realtime Clock</Description><StartTime><Timestamp dt:dt="int">0</Timestamp><DateUtc dt:dt="string">2023-02-11T03:28:40Z</DateUtc></StartTime><FrequencyChanges><FrequencyChange><Frequency dt:dt="r8">10000000</Frequency><Timestamp dt:dt="r8">607444700569</Timestamp><Current dt:dt="r8">0</Current><DateUtc dt:dt="string">2023-02-11T03:28:40Z</DateUtc></FrequencyChange></FrequencyChanges></Clock>\n	Wisconsin-1155-4	60.039	1.0.0.262	1	1857011325	Full	3.0.3.80	3.0.3.80	02-11-2023	2/11/2023 3:28:41 AM	11:28:41	Keyboard	Keyboard	Keyboard	3.0.3.82	Keyboard	2					1	1	1		BlockProc	List2	2								2	1	2							ShapeProc	List3											9	Button1.png	Button2.png	Button3.png	Button4.png	Bluecircle2.png							{Button1}	0							0	TrialProc	ShapeList	1	1	9				1	{Button1}	Button	1	33	158249	0	{Button1}	1519	159768	Shape
Wisconsin	1155	4	<?xml version="1.0"?>\n<Clock xmlns:dt="urn:schemas-microsoft-com:datatypes"><Description dt:dt="string">E-Prime Primary Realtime Clock</Description><StartTime><Timestamp dt:dt="int">0</Timestamp><DateUtc dt:dt="string">2023-02-11T03:28:40Z</DateUtc></StartTime><FrequencyChanges><FrequencyChange><Frequency dt:dt="r8">10000000</Frequency><Timestamp dt:dt="r8">607444700569</Timestamp><Current dt:dt="r8">0</Current><DateUtc dt:dt="string">2023-02-11T03:28:40Z</DateUtc></FrequencyChange></FrequencyChanges></Clock>\n	Wisconsin-1155-4	60.039	1.0.0.262	1	1857011325	Full	3.0.3.80	3.0.3.80	02-11-2023	2/11/2023 3:28:41 AM	11:28:41	Keyboard	Keyboard	Keyboard	3.0.3.82	Keyboard	2					1	1	1		BlockProc	List2	2								2	1	2							ShapeProc	List3											10	Button1.png	Button2.png	Button3.png	Button4.png	yellowcircle3.png							{Button1}	0							0	TrialProc	ShapeList	8	1	10				1	{Button1}	Button	9	33	162348	0	{Button1}	861	163209	Shape
Wisconsin	1155	4	<?xml version="1.0"?>\n<Clock xmlns:dt="urn:schemas-microsoft-com:datatypes"><Description dt:dt="string">E-Prime Primary Realtime Clock</Description><StartTime><Timestamp dt:dt="int">0</Timestamp><DateUtc dt:dt="string">2023-02-11T03:28:40Z</DateUtc></StartTime><FrequencyChanges><FrequencyChange><Frequency dt:dt="r8">10000000</Frequency><Timestamp dt:dt="r8">607444700569</Timestamp><Current dt:dt="r8">0</Current><DateUtc dt:dt="string">2023-02-11T03:28:40Z</DateUtc></FrequencyChange></FrequencyChanges></Clock>\n	Wisconsin-1155-4	60.039	1.0.0.262	1	1857011325	Full	3.0.3.80	3.0.3.80	02-11-2023	2/11/2023 3:28:41 AM	11:28:41	Keyboard	Keyboard	Keyboard	3.0.3.82	Keyboard	2					1	1	1		BlockProc	List2	3								3	1	3							NumberProc	List3											1	Button1.png	Button2.png	Button3.png	Button4.png	Greencross3.png							{Button3}	0	5	1	1				0	TrialProc	NumberList							1	{Button3}	Button	10	33	165780	0	{Button3}	1220	167000	number
Wisconsin	1155	4	<?xml version="1.0"?>\n<Clock xmlns:dt="urn:schemas-microsoft-com:datatypes"><Description dt:dt="string">E-Prime Primary Realtime Clock</Description><StartTime><Timestamp dt:dt="int">0</Timestamp><DateUtc dt:dt="string">2023-02-11T03:28:40Z</DateUtc></StartTime><FrequencyChanges><FrequencyChange><Frequency dt:dt="r8">10000000</Frequency><Timestamp dt:dt="r8">607444700569</Timestamp><Current dt:dt="r8">0</Current><DateUtc dt:dt="string">2023-02-11T03:28:40Z</DateUtc></FrequencyChange></FrequencyChanges></Clock>\n	Wisconsin-1155-4	60.039	1.0.0.262	1	1857011325	Full	3.0.3.80	3.0.3.80	02-11-2023	2/11/2023 3:28:41 AM	11:28:41	Keyboard	Keyboard	Keyboard	3.0.3.82	Keyboard	2					1	1	1		BlockProc	List2	3								3	1	3							NumberProc	List3											2	Button1.png	Button2.png	Button3.png	Button4.png	Bluestar2.png							{Button1}	0	2	1	2				0	TrialProc	NumberList							0	{Button1}	Button	2	33	169579	0	{Button4}	1405	170984	number
Wisconsin	1155	4	<?xml version="1.0"?>\n<Clock xmlns:dt="urn:schemas-microsoft-com:datatypes"><Description dt:dt="string">E-Prime Primary Realtime Clock</Description><StartTime><Timestamp dt:dt="int">0</Timestamp><DateUtc dt:dt="string">2023-02-11T03:28:40Z</DateUtc></StartTime><FrequencyChanges><FrequencyChange><Frequency dt:dt="r8">10000000</Frequency><Timestamp dt:dt="r8">607444700569</Timestamp><Current dt:dt="r8">0</Current><DateUtc dt:dt="string">2023-02-11T03:28:40Z</DateUtc></FrequencyChange></FrequencyChanges></Clock>\n	Wisconsin-1155-4	60.039	1.0.0.262	1	1857011325	Full	3.0.3.80	3.0.3.80	02-11-2023	2/11/2023 3:28:41 AM	11:28:41	Keyboard	Keyboard	Keyboard	3.0.3.82	Keyboard	2					1	1	1		BlockProc	List2	3								3	1	3							NumberProc	List3											3	Button1.png	Button2.png	Button3.png	Button4.png	Yellowcross3.png							{Button3}	0	10	1	3				0	TrialProc	NumberList							1	{Button3}	Button	1	34	173562	0	{Button3}	1239	174801	number
Wisconsin	1155	4	<?xml version="1.0"?>\n<Clock xmlns:dt="urn:schemas-microsoft-com:datatypes"><Description dt:dt="string">E-Prime Primary Realtime Clock</Description><StartTime><Timestamp dt:dt="int">0</Timestamp><DateUtc dt:dt="string">2023-02-11T03:28:40Z</DateUtc></StartTime><FrequencyChanges><FrequencyChange><Frequency dt:dt="r8">10000000</Frequency><Timestamp dt:dt="r8">607444700569</Timestamp><Current dt:dt="r8">0</Current><DateUtc dt:dt="string">2023-02-11T03:28:40Z</DateUtc></FrequencyChange></FrequencyChanges></Clock>\n	Wisconsin-1155-4	60.039	1.0.0.262	1	1857011325	Full	3.0.3.80	3.0.3.80	02-11-2023	2/11/2023 3:28:41 AM	11:28:41	Keyboard	Keyboard	Keyboard	3.0.3.82	Keyboard	2					1	1	1		BlockProc	List2	3								3	1	3							NumberProc	List3											4	Button1.png	Button2.png	Button3.png	Button4.png	Redstar2.png							{Button1}	0	7	1	4				0	TrialProc	NumberList							1	{Button1}	Button	10	50	177394	0	{Button1}	1782	179176	number
Wisconsin	1155	4	<?xml version="1.0"?>\n<Clock xmlns:dt="urn:schemas-microsoft-com:datatypes"><Description dt:dt="string">E-Prime Primary Realtime Clock</Description><StartTime><Timestamp dt:dt="int">0</Timestamp><DateUtc dt:dt="string">2023-02-11T03:28:40Z</DateUtc></StartTime><FrequencyChanges><FrequencyChange><Frequency dt:dt="r8">10000000</Frequency><Timestamp dt:dt="r8">607444700569</Timestamp><Current dt:dt="r8">0</Current><DateUtc dt:dt="string">2023-02-11T03:28:40Z</DateUtc></FrequencyChange></FrequencyChanges></Clock>\n	Wisconsin-1155-4	60.039	1.0.0.262	1	1857011325	Full	3.0.3.80	3.0.3.80	02-11-2023	2/11/2023 3:28:41 AM	11:28:41	Keyboard	Keyboard	Keyboard	3.0.3.82	Keyboard	2					1	1	1		BlockProc	List2	3								3	1	3							NumberProc	List3											5	Button1.png	Button2.png	Button3.png	Button4.png	Redtriangle4.png							{Button2}	0	8	1	5				0	TrialProc	NumberList							1	{Button2}	Button	10	33	181760	0	{Button2}	936	182696	number
Wisconsin	1155	4	<?xml version="1.0"?>\n<Clock xmlns:dt="urn:schemas-microsoft-com:datatypes"><Description dt:dt="string">E-Prime Primary Realtime Clock</Description><StartTime><Timestamp dt:dt="int">0</Timestamp><DateUtc dt:dt="string">2023-02-11T03:28:40Z</DateUtc></StartTime><FrequencyChanges><FrequencyChange><Frequency dt:dt="r8">10000000</Frequency><Timestamp dt:dt="r8">607444700569</Timestamp><Current dt:dt="r8">0</Current><DateUtc dt:dt="string">2023-02-11T03:28:40Z</DateUtc></FrequencyChange></FrequencyChanges></Clock>\n	Wisconsin-1155-4	60.039	1.0.0.262	1	1857011325	Full	3.0.3.80	3.0.3.80	02-11-2023	2/11/2023 3:28:41 AM	11:28:41	Keyboard	Keyboard	Keyboard	3.0.3.82	Keyboard	2					1	1	1		BlockProc	List2	3								3	1	3							NumberProc	List3											6	Button1.png	Button2.png	Button3.png	Button4.png	Yellowcross1.png							{Button4}	0	9	1	6				0	TrialProc	NumberList							1	{Button4}	Button	10	33	185275	0	{Button4}	1541	186816	number
Wisconsin	1155	4	<?xml version="1.0"?>\n<Clock xmlns:dt="urn:schemas-microsoft-com:datatypes"><Description dt:dt="string">E-Prime Primary Realtime Clock</Description><StartTime><Timestamp dt:dt="int">0</Timestamp><DateUtc dt:dt="string">2023-02-11T03:28:40Z</DateUtc></StartTime><FrequencyChanges><FrequencyChange><Frequency dt:dt="r8">10000000</Frequency><Timestamp dt:dt="r8">607444700569</Timestamp><Current dt:dt="r8">0</Current><DateUtc dt:dt="string">2023-02-11T03:28:40Z</DateUtc></FrequencyChange></FrequencyChanges></Clock>\n	Wisconsin-1155-4	60.039	1.0.0.262	1	1857011325	Full	3.0.3.80	3.0.3.80	02-11-2023	2/11/2023 3:28:41 AM	11:28:41	Keyboard	Keyboard	Keyboard	3.0.3.82	Keyboard	2					1	1	1		BlockProc	List2	3								3	1	3							NumberProc	List3											7	Button1.png	Button2.png	Button3.png	Button4.png	Bluecircle4.png							{Button2}	0	1	1	7				0	TrialProc	NumberList							1	{Button2}	Button	9	33	189391	0	{Button2}	1289	190680	number
Wisconsin	1155	4	<?xml version="1.0"?>\n<Clock xmlns:dt="urn:schemas-microsoft-com:datatypes"><Description dt:dt="string">E-Prime Primary Realtime Clock</Description><StartTime><Timestamp dt:dt="int">0</Timestamp><DateUtc dt:dt="string">2023-02-11T03:28:40Z</DateUtc></StartTime><FrequencyChanges><FrequencyChange><Frequency dt:dt="r8">10000000</Frequency><Timestamp dt:dt="r8">607444700569</Timestamp><Current dt:dt="r8">0</Current><DateUtc dt:dt="string">2023-02-11T03:28:40Z</DateUtc></FrequencyChange></FrequencyChanges></Clock>\n	Wisconsin-1155-4	60.039	1.0.0.262	1	1857011325	Full	3.0.3.80	3.0.3.80	02-11-2023	2/11/2023 3:28:41 AM	11:28:41	Keyboard	Keyboard	Keyboard	3.0.3.82	Keyboard	2					1	1	1		BlockProc	List2	3								3	1	3							NumberProc	List3											8	Button1.png	Button2.png	Button3.png	Button4.png	Bluetriangle1.png							{Button4}	0	3	1	8				0	TrialProc	NumberList							1	{Button4}	Button	10	33	193257	0	{Button4}	1687	194944	number
Wisconsin	1155	4	<?xml version="1.0"?>\n<Clock xmlns:dt="urn:schemas-microsoft-com:datatypes"><Description dt:dt="string">E-Prime Primary Realtime Clock</Description><StartTime><Timestamp dt:dt="int">0</Timestamp><DateUtc dt:dt="string">2023-02-11T03:28:40Z</DateUtc></StartTime><FrequencyChanges><FrequencyChange><Frequency dt:dt="r8">10000000</Frequency><Timestamp dt:dt="r8">607444700569</Timestamp><Current dt:dt="r8">0</Current><DateUtc dt:dt="string">2023-02-11T03:28:40Z</DateUtc></FrequencyChange></FrequencyChanges></Clock>\n	Wisconsin-1155-4	60.039	1.0.0.262	1	1857011325	Full	3.0.3.80	3.0.3.80	02-11-2023	2/11/2023 3:28:41 AM	11:28:41	Keyboard	Keyboard	Keyboard	3.0.3.82	Keyboard	2					1	1	1		BlockProc	List2	3								3	1	3							NumberProc	List3											9	Button1.png	Button2.png	Button3.png	Button4.png	Greencircle4.png							{Button2}	0	4	1	9				0	TrialProc	NumberList							1	{Button2}	Button	9	33	197522	0	{Button2}	1734	199256	number
Wisconsin	1155	4	<?xml version="1.0"?>\n<Clock xmlns:dt="urn:schemas-microsoft-com:datatypes"><Description dt:dt="string">E-Prime Primary Realtime Clock</Description><StartTime><Timestamp dt:dt="int">0</Timestamp><DateUtc dt:dt="string">2023-02-11T03:28:40Z</DateUtc></StartTime><FrequencyChanges><FrequencyChange><Frequency dt:dt="r8">10000000</Frequency><Timestamp dt:dt="r8">607444700569</Timestamp><Current dt:dt="r8">0</Current><DateUtc dt:dt="string">2023-02-11T03:28:40Z</DateUtc></FrequencyChange></FrequencyChanges></Clock>\n	Wisconsin-1155-4	60.039	1.0.0.262	1	1857011325	Full	3.0.3.80	3.0.3.80	02-11-2023	2/11/2023 3:28:41 AM	11:28:41	Keyboard	Keyboard	Keyboard	3.0.3.82	Keyboard	2					1	1	1		BlockProc	List2	3								3	1	3							NumberProc	List3											10	Button1.png	Button2.png	Button3.png	Button4.png	Redcircle4.png							{Button2}	0	6	1	10				0	TrialProc	NumberList							1	{Button2}	Button	9	33	201838	0	{Button2}	986	202824	number
Wisconsin	1155	4	<?xml version="1.0"?>\n<Clock xmlns:dt="urn:schemas-microsoft-com:datatypes"><Description dt:dt="string">E-Prime Primary Realtime Clock</Description><StartTime><Timestamp dt:dt="int">0</Timestamp><DateUtc dt:dt="string">2023-02-11T03:28:40Z</DateUtc></StartTime><FrequencyChanges><FrequencyChange><Frequency dt:dt="r8">10000000</Frequency><Timestamp dt:dt="r8">607444700569</Timestamp><Current dt:dt="r8">0</Current><DateUtc dt:dt="string">2023-02-11T03:28:40Z</DateUtc></FrequencyChange></FrequencyChanges></Clock>\n	Wisconsin-1155-4	60.039	1.0.0.262	1	1857011325	Full	3.0.3.80	3.0.3.80	02-11-2023	2/11/2023 3:28:41 AM	11:28:41	Keyboard	Keyboard	Keyboard	3.0.3.82	Keyboard	3					2	1	2		BlockProc2	List2	1											1	1	1				ColorProc2	List4											1	BUTTON1.png	BUTTON2.PNG	BUTTON3.png	BUTTON4.png	Greencircle1.png				3	1	1	{Button1}	0							0	TrialProc	ColorList2							0	{Button1}	Button	9	33	205404	0	{Button4}	1980	207384	color
Wisconsin	1155	4	<?xml version="1.0"?>\n<Clock xmlns:dt="urn:schemas-microsoft-com:datatypes"><Description dt:dt="string">E-Prime Primary Realtime Clock</Description><StartTime><Timestamp dt:dt="int">0</Timestamp><DateUtc dt:dt="string">2023-02-11T03:28:40Z</DateUtc></StartTime><FrequencyChanges><FrequencyChange><Frequency dt:dt="r8">10000000</Frequency><Timestamp dt:dt="r8">607444700569</Timestamp><Current dt:dt="r8">0</Current><DateUtc dt:dt="string">2023-02-11T03:28:40Z</DateUtc></FrequencyChange></FrequencyChanges></Clock>\n	Wisconsin-1155-4	60.039	1.0.0.262	1	1857011325	Full	3.0.3.80	3.0.3.80	02-11-2023	2/11/2023 3:28:41 AM	11:28:41	Keyboard	Keyboard	Keyboard	3.0.3.82	Keyboard	3					2	1	2		BlockProc2	List2	1											1	1	1				ColorProc2	List4											2	BUTTON1.png	BUTTON2.PNG	BUTTON3.png	BUTTON4.png	bluecross1.png				1	1	2	{Button4}	0							0	TrialProc	ColorList2							0	{Button4}	Button	2	33	209969	5016		0	0	color
Wisconsin	1155	4	<?xml version="1.0"?>\n<Clock xmlns:dt="urn:schemas-microsoft-com:datatypes"><Description dt:dt="string">E-Prime Primary Realtime Clock</Description><StartTime><Timestamp dt:dt="int">0</Timestamp><DateUtc dt:dt="string">2023-02-11T03:28:40Z</DateUtc></StartTime><FrequencyChanges><FrequencyChange><Frequency dt:dt="r8">10000000</Frequency><Timestamp dt:dt="r8">607444700569</Timestamp><Current dt:dt="r8">0</Current><DateUtc dt:dt="string">2023-02-11T03:28:40Z</DateUtc></FrequencyChange></FrequencyChanges></Clock>\n	Wisconsin-1155-4	60.039	1.0.0.262	1	1857011325	Full	3.0.3.80	3.0.3.80	02-11-2023	2/11/2023 3:28:41 AM	11:28:41	Keyboard	Keyboard	Keyboard	3.0.3.82	Keyboard	3					2	1	2		BlockProc2	List2	1											1	1	1				ColorProc2	List4											3	BUTTON1.png	BUTTON2.PNG	BUTTON3.png	BUTTON4.png	bluestar3.png				2	1	3	{Button4}	0							0	TrialProc	ColorList2							0	{Button4}	Button	10	33	217534	0	{Button3}	1834	219368	color
Wisconsin	1155	4	<?xml version="1.0"?>\n<Clock xmlns:dt="urn:schemas-microsoft-com:datatypes"><Description dt:dt="string">E-Prime Primary Realtime Clock</Description><StartTime><Timestamp dt:dt="int">0</Timestamp><DateUtc dt:dt="string">2023-02-11T03:28:40Z</DateUtc></StartTime><FrequencyChanges><FrequencyChange><Frequency dt:dt="r8">10000000</Frequency><Timestamp dt:dt="r8">607444700569</Timestamp><Current dt:dt="r8">0</Current><DateUtc dt:dt="string">2023-02-11T03:28:40Z</DateUtc></FrequencyChange></FrequencyChanges></Clock>\n	Wisconsin-1155-4	60.039	1.0.0.262	1	1857011325	Full	3.0.3.80	3.0.3.80	02-11-2023	2/11/2023 3:28:41 AM	11:28:41	Keyboard	Keyboard	Keyboard	3.0.3.82	Keyboard	3					2	1	2		BlockProc2	List2	1											1	1	1				ColorProc2	List4											4	BUTTON1.png	BUTTON2.PNG	BUTTON3.png	BUTTON4.png	yellowtriangle3.png				10	1	4	{Button2}	0							0	TrialProc	ColorList2							1	{Button2}	Button	9	33	221950	0	{Button2}	962	222912	color
Wisconsin	1155	4	<?xml version="1.0"?>\n<Clock xmlns:dt="urn:schemas-microsoft-com:datatypes"><Description dt:dt="string">E-Prime Primary Realtime Clock</Description><StartTime><Timestamp dt:dt="int">0</Timestamp><DateUtc dt:dt="string">2023-02-11T03:28:40Z</DateUtc></StartTime><FrequencyChanges><FrequencyChange><Frequency dt:dt="r8">10000000</Frequency><Timestamp dt:dt="r8">607444700569</Timestamp><Current dt:dt="r8">0</Current><DateUtc dt:dt="string">2023-02-11T03:28:40Z</DateUtc></FrequencyChange></FrequencyChanges></Clock>\n	Wisconsin-1155-4	60.039	1.0.0.262	1	1857011325	Full	3.0.3.80	3.0.3.80	02-11-2023	2/11/2023 3:28:41 AM	11:28:41	Keyboard	Keyboard	Keyboard	3.0.3.82	Keyboard	3					2	1	2		BlockProc2	List2	1											1	1	1				ColorProc2	List4											5	BUTTON1.png	BUTTON2.PNG	BUTTON3.png	BUTTON4.png	greencross4.png				4	1	5	{Button1}	0							0	TrialProc	ColorList2							0	{Button1}	Button	10	33	225499	0	{Button3}	1654	227153	color
Wisconsin	1155	4	<?xml version="1.0"?>\n<Clock xmlns:dt="urn:schemas-microsoft-com:datatypes"><Description dt:dt="string">E-Prime Primary Realtime Clock</Description><StartTime><Timestamp dt:dt="int">0</Timestamp><DateUtc dt:dt="string">2023-02-11T03:28:40Z</DateUtc></StartTime><FrequencyChanges><FrequencyChange><Frequency dt:dt="r8">10000000</Frequency><Timestamp dt:dt="r8">607444700569</Timestamp><Current dt:dt="r8">0</Current><DateUtc dt:dt="string">2023-02-11T03:28:40Z</DateUtc></FrequencyChange></FrequencyChanges></Clock>\n	Wisconsin-1155-4	60.039	1.0.0.262	1	1857011325	Full	3.0.3.80	3.0.3.80	02-11-2023	2/11/2023 3:28:41 AM	11:28:41	Keyboard	Keyboard	Keyboard	3.0.3.82	Keyboard	3					2	1	2		BlockProc2	List2	1											1	1	1				ColorProc2	List4											6	BUTTON1.png	BUTTON2.PNG	BUTTON3.png	BUTTON4.png	redstar4.png				8	1	6	{Button3}	0							0	TrialProc	ColorList2							0	{Button3}	Button	9	33	229731	0	{Button2}	1589	231320	color
Wisconsin	1155	4	<?xml version="1.0"?>\n<Clock xmlns:dt="urn:schemas-microsoft-com:datatypes"><Description dt:dt="string">E-Prime Primary Realtime Clock</Description><StartTime><Timestamp dt:dt="int">0</Timestamp><DateUtc dt:dt="string">2023-02-11T03:28:40Z</DateUtc></StartTime><FrequencyChanges><FrequencyChange><Frequency dt:dt="r8">10000000</Frequency><Timestamp dt:dt="r8">607444700569</Timestamp><Current dt:dt="r8">0</Current><DateUtc dt:dt="string">2023-02-11T03:28:40Z</DateUtc></FrequencyChange></FrequencyChanges></Clock>\n	Wisconsin-1155-4	60.039	1.0.0.262	1	1857011325	Full	3.0.3.80	3.0.3.80	02-11-2023	2/11/2023 3:28:41 AM	11:28:41	Keyboard	Keyboard	Keyboard	3.0.3.82	Keyboard	3					2	1	2		BlockProc2	List2	1											1	1	1				ColorProc2	List4											7	BUTTON1.png	BUTTON2.PNG	BUTTON3.png	BUTTON4.png	Redcircle2.png				7	1	7	{Button3}	0							0	TrialProc	ColorList2							0	{Button3}	Button	2	33	233897	0	{Button1}	1431	235328	color
Wisconsin	1155	4	<?xml version="1.0"?>\n<Clock xmlns:dt="urn:schemas-microsoft-com:datatypes"><Description dt:dt="string">E-Prime Primary Realtime Clock</Description><StartTime><Timestamp dt:dt="int">0</Timestamp><DateUtc dt:dt="string">2023-02-11T03:28:40Z</DateUtc></StartTime><FrequencyChanges><FrequencyChange><Frequency dt:dt="r8">10000000</Frequency><Timestamp dt:dt="r8">607444700569</Timestamp><Current dt:dt="r8">0</Current><DateUtc dt:dt="string">2023-02-11T03:28:40Z</DateUtc></FrequencyChange></FrequencyChanges></Clock>\n	Wisconsin-1155-4	60.039	1.0.0.262	1	1857011325	Full	3.0.3.80	3.0.3.80	02-11-2023	2/11/2023 3:28:41 AM	11:28:41	Keyboard	Keyboard	Keyboard	3.0.3.82	Keyboard	3					2	1	2		BlockProc2	List2	1											1	1	1				ColorProc2	List4											8	BUTTON1.png	BUTTON2.PNG	BUTTON3.png	BUTTON4.png	greentriangle2.png				6	1	8	{Button1}	0							0	TrialProc	ColorList2							1	{Button1}	Button	1	34	237913	0	{Button1}	1927	239840	color
Wisconsin	1155	4	<?xml version="1.0"?>\n<Clock xmlns:dt="urn:schemas-microsoft-com:datatypes"><Description dt:dt="string">E-Prime Primary Realtime Clock</Description><StartTime><Timestamp dt:dt="int">0</Timestamp><DateUtc dt:dt="string">2023-02-11T03:28:40Z</DateUtc></StartTime><FrequencyChanges><FrequencyChange><Frequency dt:dt="r8">10000000</Frequency><Timestamp dt:dt="r8">607444700569</Timestamp><Current dt:dt="r8">0</Current><DateUtc dt:dt="string">2023-02-11T03:28:40Z</DateUtc></FrequencyChange></FrequencyChanges></Clock>\n	Wisconsin-1155-4	60.039	1.0.0.262	1	1857011325	Full	3.0.3.80	3.0.3.80	02-11-2023	2/11/2023 3:28:41 AM	11:28:41	Keyboard	Keyboard	Keyboard	3.0.3.82	Keyboard	3					2	1	2		BlockProc2	List2	1											1	1	1				ColorProc2	List4											9	BUTTON1.png	BUTTON2.PNG	BUTTON3.png	BUTTON4.png	yellowcircle2.png				9	1	9	{Button2}	0							0	TrialProc	ColorList2							1	{Button2}	Button	2	33	242411	0	{Button2}	973	243384	color
Wisconsin	1155	4	<?xml version="1.0"?>\n<Clock xmlns:dt="urn:schemas-microsoft-com:datatypes"><Description dt:dt="string">E-Prime Primary Realtime Clock</Description><StartTime><Timestamp dt:dt="int">0</Timestamp><DateUtc dt:dt="string">2023-02-11T03:28:40Z</DateUtc></StartTime><FrequencyChanges><FrequencyChange><Frequency dt:dt="r8">10000000</Frequency><Timestamp dt:dt="r8">607444700569</Timestamp><Current dt:dt="r8">0</Current><DateUtc dt:dt="string">2023-02-11T03:28:40Z</DateUtc></FrequencyChange></FrequencyChanges></Clock>\n	Wisconsin-1155-4	60.039	1.0.0.262	1	1857011325	Full	3.0.3.80	3.0.3.80	02-11-2023	2/11/2023 3:28:41 AM	11:28:41	Keyboard	Keyboard	Keyboard	3.0.3.82	Keyboard	3					2	1	2		BlockProc2	List2	1											1	1	1				ColorProc2	List4											10	BUTTON1.png	BUTTON2.PNG	BUTTON3.png	BUTTON4.png	greenstar4.png				5	1	10	{Button1}	0							0	TrialProc	ColorList2							1	{Button1}	Button	9	34	245961	0	{Button1}	1384	247345	color
Wisconsin	1155	4	<?xml version="1.0"?>\n<Clock xmlns:dt="urn:schemas-microsoft-com:datatypes"><Description dt:dt="string">E-Prime Primary Realtime Clock</Description><StartTime><Timestamp dt:dt="int">0</Timestamp><DateUtc dt:dt="string">2023-02-11T03:28:40Z</DateUtc></StartTime><FrequencyChanges><FrequencyChange><Frequency dt:dt="r8">10000000</Frequency><Timestamp dt:dt="r8">607444700569</Timestamp><Current dt:dt="r8">0</Current><DateUtc dt:dt="string">2023-02-11T03:28:40Z</DateUtc></FrequencyChange></FrequencyChanges></Clock>\n	Wisconsin-1155-4	60.039	1.0.0.262	1	1857011325	Full	3.0.3.80	3.0.3.80	02-11-2023	2/11/2023 3:28:41 AM	11:28:41	Keyboard	Keyboard	Keyboard	3.0.3.82	Keyboard	3					2	1	2		BlockProc2	List2	2											3	1	2				NumberProc2	List4											1	Button1.png	Button2.png	Button3.png	Button4.png	Bluecross3.png							{button3}	0				1	1	1	0	TrialProc	NumberList2							0	{button3}	Button	10	33	249926	0	{Button4}	2138	252064	number
Wisconsin	1155	4	<?xml version="1.0"?>\n<Clock xmlns:dt="urn:schemas-microsoft-com:datatypes"><Description dt:dt="string">E-Prime Primary Realtime Clock</Description><StartTime><Timestamp dt:dt="int">0</Timestamp><DateUtc dt:dt="string">2023-02-11T03:28:40Z</DateUtc></StartTime><FrequencyChanges><FrequencyChange><Frequency dt:dt="r8">10000000</Frequency><Timestamp dt:dt="r8">607444700569</Timestamp><Current dt:dt="r8">0</Current><DateUtc dt:dt="string">2023-02-11T03:28:40Z</DateUtc></FrequencyChange></FrequencyChanges></Clock>\n	Wisconsin-1155-4	60.039	1.0.0.262	1	1857011325	Full	3.0.3.80	3.0.3.80	02-11-2023	2/11/2023 3:28:41 AM	11:28:41	Keyboard	Keyboard	Keyboard	3.0.3.82	Keyboard	3					2	1	2		BlockProc2	List2	2											3	1	2				NumberProc2	List4											2	Button1.png	Button2.png	Button3.png	Button4.png	Bluestar4.png							{button2}	0				2	1	2	0	TrialProc	NumberList2							0	{button2}	Button	9	33	254642	0	{Button4}	2918	257560	number
Wisconsin	1155	4	<?xml version="1.0"?>\n<Clock xmlns:dt="urn:schemas-microsoft-com:datatypes"><Description dt:dt="string">E-Prime Primary Realtime Clock</Description><StartTime><Timestamp dt:dt="int">0</Timestamp><DateUtc dt:dt="string">2023-02-11T03:28:40Z</DateUtc></StartTime><FrequencyChanges><FrequencyChange><Frequency dt:dt="r8">10000000</Frequency><Timestamp dt:dt="r8">607444700569</Timestamp><Current dt:dt="r8">0</Current><DateUtc dt:dt="string">2023-02-11T03:28:40Z</DateUtc></FrequencyChange></FrequencyChanges></Clock>\n	Wisconsin-1155-4	60.039	1.0.0.262	1	1857011325	Full	3.0.3.80	3.0.3.80	02-11-2023	2/11/2023 3:28:41 AM	11:28:41	Keyboard	Keyboard	Keyboard	3.0.3.82	Keyboard	3					2	1	2		BlockProc2	List2	2											3	1	2				NumberProc2	List4											3	Button1.png	Button2.png	Button3.png	Button4.png	Bluetriangle4.png							{button2}	0				3	1	3	0	TrialProc	NumberList2							1	{button2}	Button	10	33	260140	0	{Button2}	732	260872	number
Wisconsin	1155	4	<?xml version="1.0"?>\n<Clock xmlns:dt="urn:schemas-microsoft-com:datatypes"><Description dt:dt="string">E-Prime Primary Realtime Clock</Description><StartTime><Timestamp dt:dt="int">0</Timestamp><DateUtc dt:dt="string">2023-02-11T03:28:40Z</DateUtc></StartTime><FrequencyChanges><FrequencyChange><Frequency dt:dt="r8">10000000</Frequency><Timestamp dt:dt="r8">607444700569</Timestamp><Current dt:dt="r8">0</Current><DateUtc dt:dt="string">2023-02-11T03:28:40Z</DateUtc></FrequencyChange></FrequencyChanges></Clock>\n	Wisconsin-1155-4	60.039	1.0.0.262	1	1857011325	Full	3.0.3.80	3.0.3.80	02-11-2023	2/11/2023 3:28:41 AM	11:28:41	Keyboard	Keyboard	Keyboard	3.0.3.82	Keyboard	3					2	1	2		BlockProc2	List2	2											3	1	2				NumberProc2	List4											4	Button1.png	Button2.png	Button3.png	Button4.png	Greencross2.png							{button1}	0				4	1	4	0	TrialProc	NumberList2							1	{button1}	Button	2	33	263456	0	{Button1}	1232	264688	number
Wisconsin	1155	4	<?xml version="1.0"?>\n<Clock xmlns:dt="urn:schemas-microsoft-com:datatypes"><Description dt:dt="string">E-Prime Primary Realtime Clock</Description><StartTime><Timestamp dt:dt="int">0</Timestamp><DateUtc dt:dt="string">2023-02-11T03:28:40Z</DateUtc></StartTime><FrequencyChanges><FrequencyChange><Frequency dt:dt="r8">10000000</Frequency><Timestamp dt:dt="r8">607444700569</Timestamp><Current dt:dt="r8">0</Current><DateUtc dt:dt="string">2023-02-11T03:28:40Z</DateUtc></FrequencyChange></FrequencyChanges></Clock>\n	Wisconsin-1155-4	60.039	1.0.0.262	1	1857011325	Full	3.0.3.80	3.0.3.80	02-11-2023	2/11/2023 3:28:41 AM	11:28:41	Keyboard	Keyboard	Keyboard	3.0.3.82	Keyboard	3					2	1	2		BlockProc2	List2	2											3	1	2				NumberProc2	List4											5	Button1.png	Button2.png	Button3.png	Button4.png	Greenstar1.png							{button4}	0				5	1	5	0	TrialProc	NumberList2							0	{button4}	Button	2	33	267272	0	{Button1}	1008	268280	number
Wisconsin	1155	4	<?xml version="1.0"?>\n<Clock xmlns:dt="urn:schemas-microsoft-com:datatypes"><Description dt:dt="string">E-Prime Primary Realtime Clock</Description><StartTime><Timestamp dt:dt="int">0</Timestamp><DateUtc dt:dt="string">2023-02-11T03:28:40Z</DateUtc></StartTime><FrequencyChanges><FrequencyChange><Frequency dt:dt="r8">10000000</Frequency><Timestamp dt:dt="r8">607444700569</Timestamp><Current dt:dt="r8">0</Current><DateUtc dt:dt="string">2023-02-11T03:28:40Z</DateUtc></FrequencyChange></FrequencyChanges></Clock>\n	Wisconsin-1155-4	60.039	1.0.0.262	1	1857011325	Full	3.0.3.80	3.0.3.80	02-11-2023	2/11/2023 3:28:41 AM	11:28:41	Keyboard	Keyboard	Keyboard	3.0.3.82	Keyboard	3					2	1	2		BlockProc2	List2	2											3	1	2				NumberProc2	List4											6	Button1.png	Button2.png	Button3.png	Button4.png	Redstar1.png							{button4}	0				6	1	6	0	TrialProc	NumberList2							1	{button4}	Button	2	33	270854	0	{Button4}	1883	272737	number
Wisconsin	1155	4	<?xml version="1.0"?>\n<Clock xmlns:dt="urn:schemas-microsoft-com:datatypes"><Description dt:dt="string">E-Prime Primary Realtime Clock</Description><StartTime><Timestamp dt:dt="int">0</Timestamp><DateUtc dt:dt="string">2023-02-11T03:28:40Z</DateUtc></StartTime><FrequencyChanges><FrequencyChange><Frequency dt:dt="r8">10000000</Frequency><Timestamp dt:dt="r8">607444700569</Timestamp><Current dt:dt="r8">0</Current><DateUtc dt:dt="string">2023-02-11T03:28:40Z</DateUtc></FrequencyChange></FrequencyChanges></Clock>\n	Wisconsin-1155-4	60.039	1.0.0.262	1	1857011325	Full	3.0.3.80	3.0.3.80	02-11-2023	2/11/2023 3:28:41 AM	11:28:41	Keyboard	Keyboard	Keyboard	3.0.3.82	Keyboard	3					2	1	2		BlockProc2	List2	2											3	1	2				NumberProc2	List4											7	Button1.png	Button2.png	Button3.png	Button4.png	Redtriangle2.png							{button1}	0				7	1	7	0	TrialProc	NumberList2							0	{button1}	Button	1	33	275320	0	{Button3}	1520	276840	number
Wisconsin	1155	4	<?xml version="1.0"?>\n<Clock xmlns:dt="urn:schemas-microsoft-com:datatypes"><Description dt:dt="string">E-Prime Primary Realtime Clock</Description><StartTime><Timestamp dt:dt="int">0</Timestamp><DateUtc dt:dt="string">2023-02-11T03:28:40Z</DateUtc></StartTime><FrequencyChanges><FrequencyChange><Frequency dt:dt="r8">10000000</Frequency><Timestamp dt:dt="r8">607444700569</Timestamp><Current dt:dt="r8">0</Current><DateUtc dt:dt="string">2023-02-11T03:28:40Z</DateUtc></FrequencyChange></FrequencyChanges></Clock>\n	Wisconsin-1155-4	60.039	1.0.0.262	1	1857011325	Full	3.0.3.80	3.0.3.80	02-11-2023	2/11/2023 3:28:41 AM	11:28:41	Keyboard	Keyboard	Keyboard	3.0.3.82	Keyboard	3					2	1	2		BlockProc2	List2	2											3	1	2				NumberProc2	List4											8	Button1.png	Button2.png	Button3.png	Button4.png	yellowcircle4.png							{button2}	0				8	1	8	0	TrialProc	NumberList2							1	{button2}	Button	10	33	279419	0	{Button2}	1517	280936	number
Wisconsin	1155	4	<?xml version="1.0"?>\n<Clock xmlns:dt="urn:schemas-microsoft-com:datatypes"><Description dt:dt="string">E-Prime Primary Realtime Clock</Description><StartTime><Timestamp dt:dt="int">0</Timestamp><DateUtc dt:dt="string">2023-02-11T03:28:40Z</DateUtc></StartTime><FrequencyChanges><FrequencyChange><Frequency dt:dt="r8">10000000</Frequency><Timestamp dt:dt="r8">607444700569</Timestamp><Current dt:dt="r8">0</Current><DateUtc dt:dt="string">2023-02-11T03:28:40Z</DateUtc></FrequencyChange></FrequencyChanges></Clock>\n	Wisconsin-1155-4	60.039	1.0.0.262	1	1857011325	Full	3.0.3.80	3.0.3.80	02-11-2023	2/11/2023 3:28:41 AM	11:28:41	Keyboard	Keyboard	Keyboard	3.0.3.82	Keyboard	3					2	1	2		BlockProc2	List2	2											3	1	2				NumberProc2	List4											9	Button1.png	Button2.png	Button3.png	Button4.png	Yellowcross2.png							{button1}	0				9	1	9	0	TrialProc	NumberList2							1	{button1}	Button	9	33	283518	0	{Button1}	2666	286184	number
Wisconsin	1155	4	<?xml version="1.0"?>\n<Clock xmlns:dt="urn:schemas-microsoft-com:datatypes"><Description dt:dt="string">E-Prime Primary Realtime Clock</Description><StartTime><Timestamp dt:dt="int">0</Timestamp><DateUtc dt:dt="string">2023-02-11T03:28:40Z</DateUtc></StartTime><FrequencyChanges><FrequencyChange><Frequency dt:dt="r8">10000000</Frequency><Timestamp dt:dt="r8">607444700569</Timestamp><Current dt:dt="r8">0</Current><DateUtc dt:dt="string">2023-02-11T03:28:40Z</DateUtc></FrequencyChange></FrequencyChanges></Clock>\n	Wisconsin-1155-4	60.039	1.0.0.262	1	1857011325	Full	3.0.3.80	3.0.3.80	02-11-2023	2/11/2023 3:28:41 AM	11:28:41	Keyboard	Keyboard	Keyboard	3.0.3.82	Keyboard	3					2	1	2		BlockProc2	List2	2											3	1	2				NumberProc2	List4											10	Button1.png	Button2.png	Button3.png	Button4.png	Yellowtriangle2.png							{button3}	0				10	1	10	0	TrialProc	NumberList2							0	{button3}	Button	9	33	288767	0	{Button1}	1705	290472	number
Wisconsin	1155	4	<?xml version="1.0"?>\n<Clock xmlns:dt="urn:schemas-microsoft-com:datatypes"><Description dt:dt="string">E-Prime Primary Realtime Clock</Description><StartTime><Timestamp dt:dt="int">0</Timestamp><DateUtc dt:dt="string">2023-02-11T03:28:40Z</DateUtc></StartTime><FrequencyChanges><FrequencyChange><Frequency dt:dt="r8">10000000</Frequency><Timestamp dt:dt="r8">607444700569</Timestamp><Current dt:dt="r8">0</Current><DateUtc dt:dt="string">2023-02-11T03:28:40Z</DateUtc></FrequencyChange></FrequencyChanges></Clock>\n	Wisconsin-1155-4	60.039	1.0.0.262	1	1857011325	Full	3.0.3.80	3.0.3.80	02-11-2023	2/11/2023 3:28:41 AM	11:28:41	Keyboard	Keyboard	Keyboard	3.0.3.82	Keyboard	3					2	1	2		BlockProc2	List2	3											2	1	3				ShapeProc2	List4											1	Button1.png	Button2.png	Button3.png	Button4.png	Yellowstar2.png							{button4}	0							0	TrialProc	ShapeList2				9	1	1	0	{button4}	Button	9	33	293049	0	{Button2}	1679	294728	Shape
Wisconsin	1155	4	<?xml version="1.0"?>\n<Clock xmlns:dt="urn:schemas-microsoft-com:datatypes"><Description dt:dt="string">E-Prime Primary Realtime Clock</Description><StartTime><Timestamp dt:dt="int">0</Timestamp><DateUtc dt:dt="string">2023-02-11T03:28:40Z</DateUtc></StartTime><FrequencyChanges><FrequencyChange><Frequency dt:dt="r8">10000000</Frequency><Timestamp dt:dt="r8">607444700569</Timestamp><Current dt:dt="r8">0</Current><DateUtc dt:dt="string">2023-02-11T03:28:40Z</DateUtc></FrequencyChange></FrequencyChanges></Clock>\n	Wisconsin-1155-4	60.039	1.0.0.262	1	1857011325	Full	3.0.3.80	3.0.3.80	02-11-2023	2/11/2023 3:28:41 AM	11:28:41	Keyboard	Keyboard	Keyboard	3.0.3.82	Keyboard	3					2	1	2		BlockProc2	List2	3											2	1	3				ShapeProc2	List4											2	Button1.png	Button2.png	Button3.png	Button4.png	redcircle1.png							{button1}	0							0	TrialProc	ShapeList2				4	1	2	1	{button1}	Button	9	33	297315	0	{Button1}	1862	299177	Shape
Wisconsin	1155	4	<?xml version="1.0"?>\n<Clock xmlns:dt="urn:schemas-microsoft-com:datatypes"><Description dt:dt="string">E-Prime Primary Realtime Clock</Description><StartTime><Timestamp dt:dt="int">0</Timestamp><DateUtc dt:dt="string">2023-02-11T03:28:40Z</DateUtc></StartTime><FrequencyChanges><FrequencyChange><Frequency dt:dt="r8">10000000</Frequency><Timestamp dt:dt="r8">607444700569</Timestamp><Current dt:dt="r8">0</Current><DateUtc dt:dt="string">2023-02-11T03:28:40Z</DateUtc></FrequencyChange></FrequencyChanges></Clock>\n	Wisconsin-1155-4	60.039	1.0.0.262	1	1857011325	Full	3.0.3.80	3.0.3.80	02-11-2023	2/11/2023 3:28:41 AM	11:28:41	Keyboard	Keyboard	Keyboard	3.0.3.82	Keyboard	3					2	1	2		BlockProc2	List2	3											2	1	3				ShapeProc2	List4											3	Button1.png	Button2.png	Button3.png	Button4.png	Yellowtriangle1.png							{button2}	0							0	TrialProc	ShapeList2				10	1	3	1	{button2}	Button	1	34	301764	0	{Button2}	2076	303840	Shape
Wisconsin	1155	4	<?xml version="1.0"?>\n<Clock xmlns:dt="urn:schemas-microsoft-com:datatypes"><Description dt:dt="string">E-Prime Primary Realtime Clock</Description><StartTime><Timestamp dt:dt="int">0</Timestamp><DateUtc dt:dt="string">2023-02-11T03:28:40Z</DateUtc></StartTime><FrequencyChanges><FrequencyChange><Frequency dt:dt="r8">10000000</Frequency><Timestamp dt:dt="r8">607444700569</Timestamp><Current dt:dt="r8">0</Current><DateUtc dt:dt="string">2023-02-11T03:28:40Z</DateUtc></FrequencyChange></FrequencyChanges></Clock>\n	Wisconsin-1155-4	60.039	1.0.0.262	1	1857011325	Full	3.0.3.80	3.0.3.80	02-11-2023	2/11/2023 3:28:41 AM	11:28:41	Keyboard	Keyboard	Keyboard	3.0.3.82	Keyboard	3					2	1	2		BlockProc2	List2	3											2	1	3				ShapeProc2	List4											4	Button1.png	Button2.png	Button3.png	Button4.png	Redtriangle3.png							{button2}	0							0	TrialProc	ShapeList2				7	1	4	1	{button2}	Button	10	33	306412	0	{Button2}	2076	308488	Shape
Wisconsin	1155	4	<?xml version="1.0"?>\n<Clock xmlns:dt="urn:schemas-microsoft-com:datatypes"><Description dt:dt="string">E-Prime Primary Realtime Clock</Description><StartTime><Timestamp dt:dt="int">0</Timestamp><DateUtc dt:dt="string">2023-02-11T03:28:40Z</DateUtc></StartTime><FrequencyChanges><FrequencyChange><Frequency dt:dt="r8">10000000</Frequency><Timestamp dt:dt="r8">607444700569</Timestamp><Current dt:dt="r8">0</Current><DateUtc dt:dt="string">2023-02-11T03:28:40Z</DateUtc></FrequencyChange></FrequencyChanges></Clock>\n	Wisconsin-1155-4	60.039	1.0.0.262	1	1857011325	Full	3.0.3.80	3.0.3.80	02-11-2023	2/11/2023 3:28:41 AM	11:28:41	Keyboard	Keyboard	Keyboard	3.0.3.82	Keyboard	3					2	1	2		BlockProc2	List2	3											2	1	3				ShapeProc2	List4											5	Button1.png	Button2.png	Button3.png	Button4.png	yellowcross4.png							{button3}	0							0	TrialProc	ShapeList2				8	1	5	0	{button3}	Button	10	33	311061	0	{Button2}	939	312000	Shape
Wisconsin	1155	4	<?xml version="1.0"?>\n<Clock xmlns:dt="urn:schemas-microsoft-com:datatypes"><Description dt:dt="string">E-Prime Primary Realtime Clock</Description><StartTime><Timestamp dt:dt="int">0</Timestamp><DateUtc dt:dt="string">2023-02-11T03:28:40Z</DateUtc></StartTime><FrequencyChanges><FrequencyChange><Frequency dt:dt="r8">10000000</Frequency><Timestamp dt:dt="r8">607444700569</Timestamp><Current dt:dt="r8">0</Current><DateUtc dt:dt="string">2023-02-11T03:28:40Z</DateUtc></FrequencyChange></FrequencyChanges></Clock>\n	Wisconsin-1155-4	60.039	1.0.0.262	1	1857011325	Full	3.0.3.80	3.0.3.80	02-11-2023	2/11/2023 3:28:41 AM	11:28:41	Keyboard	Keyboard	Keyboard	3.0.3.82	Keyboard	3					2	1	2		BlockProc2	List2	3											2	1	3				ShapeProc2	List4											6	Button1.png	Button2.png	Button3.png	Button4.png	Bluecircle3.png							{button1}	0							0	TrialProc	ShapeList2				1	1	6	1	{button1}	Button	10	33	314577	0	{Button1}	1807	316384	Shape
Wisconsin	1155	4	<?xml version="1.0"?>\n<Clock xmlns:dt="urn:schemas-microsoft-com:datatypes"><Description dt:dt="string">E-Prime Primary Realtime Clock</Description><StartTime><Timestamp dt:dt="int">0</Timestamp><DateUtc dt:dt="string">2023-02-11T03:28:40Z</DateUtc></StartTime><FrequencyChanges><FrequencyChange><Frequency dt:dt="r8">10000000</Frequency><Timestamp dt:dt="r8">607444700569</Timestamp><Current dt:dt="r8">0</Current><DateUtc dt:dt="string">2023-02-11T03:28:40Z</DateUtc></FrequencyChange></FrequencyChanges></Clock>\n	Wisconsin-1155-4	60.039	1.0.0.262	1	1857011325	Full	3.0.3.80	3.0.3.80	02-11-2023	2/11/2023 3:28:41 AM	11:28:41	Keyboard	Keyboard	Keyboard	3.0.3.82	Keyboard	3					2	1	2		BlockProc2	List2	3											2	1	3				ShapeProc2	List4											7	Button1.png	Button2.png	Button3.png	Button4.png	Bluetriangle2.png							{button2}	0							0	TrialProc	ShapeList2				2	1	7	1	{button2}	Button	11	33	318959	0	{Button2}	1001	319960	Shape
Wisconsin	1155	4	<?xml version="1.0"?>\n<Clock xmlns:dt="urn:schemas-microsoft-com:datatypes"><Description dt:dt="string">E-Prime Primary Realtime Clock</Description><StartTime><Timestamp dt:dt="int">0</Timestamp><DateUtc dt:dt="string">2023-02-11T03:28:40Z</DateUtc></StartTime><FrequencyChanges><FrequencyChange><Frequency dt:dt="r8">10000000</Frequency><Timestamp dt:dt="r8">607444700569</Timestamp><Current dt:dt="r8">0</Current><DateUtc dt:dt="string">2023-02-11T03:28:40Z</DateUtc></FrequencyChange></FrequencyChanges></Clock>\n	Wisconsin-1155-4	60.039	1.0.0.262	1	1857011325	Full	3.0.3.80	3.0.3.80	02-11-2023	2/11/2023 3:28:41 AM	11:28:41	Keyboard	Keyboard	Keyboard	3.0.3.82	Keyboard	3					2	1	2		BlockProc2	List2	3											2	1	3				ShapeProc2	List4											8	Button1.png	Button2.png	Button3.png	Button4.png	Redcross2.png							{button3}	0							0	TrialProc	ShapeList2				5	1	8	1	{button3}	Button	10	33	322542	0	{Button3}	987	323529	Shape
Wisconsin	1155	4	<?xml version="1.0"?>\n<Clock xmlns:dt="urn:schemas-microsoft-com:datatypes"><Description dt:dt="string">E-Prime Primary Realtime Clock</Description><StartTime><Timestamp dt:dt="int">0</Timestamp><DateUtc dt:dt="string">2023-02-11T03:28:40Z</DateUtc></StartTime><FrequencyChanges><FrequencyChange><Frequency dt:dt="r8">10000000</Frequency><Timestamp dt:dt="r8">607444700569</Timestamp><Current dt:dt="r8">0</Current><DateUtc dt:dt="string">2023-02-11T03:28:40Z</DateUtc></FrequencyChange></FrequencyChanges></Clock>\n	Wisconsin-1155-4	60.039	1.0.0.262	1	1857011325	Full	3.0.3.80	3.0.3.80	02-11-2023	2/11/2023 3:28:41 AM	11:28:41	Keyboard	Keyboard	Keyboard	3.0.3.82	Keyboard	3					2	1	2		BlockProc2	List2	3											2	1	3				ShapeProc2	List4											9	Button1.png	Button2.png	Button3.png	Button4.png	Redstar3.png							{button4}	0							0	TrialProc	ShapeList2				6	1	9	0	{button4}	Button	1	33	326108	0	{Button3}	996	327104	Shape
Wisconsin	1155	4	<?xml version="1.0"?>\n<Clock xmlns:dt="urn:schemas-microsoft-com:datatypes"><Description dt:dt="string">E-Prime Primary Realtime Clock</Description><StartTime><Timestamp dt:dt="int">0</Timestamp><DateUtc dt:dt="string">2023-02-11T03:28:40Z</DateUtc></StartTime><FrequencyChanges><FrequencyChange><Frequency dt:dt="r8">10000000</Frequency><Timestamp dt:dt="r8">607444700569</Timestamp><Current dt:dt="r8">0</Current><DateUtc dt:dt="string">2023-02-11T03:28:40Z</DateUtc></FrequencyChange></FrequencyChanges></Clock>\n	Wisconsin-1155-4	60.039	1.0.0.262	1	1857011325	Full	3.0.3.80	3.0.3.80	02-11-2023	2/11/2023 3:28:41 AM	11:28:41	Keyboard	Keyboard	Keyboard	3.0.3.82	Keyboard	3					2	1	2		BlockProc2	List2	3											2	1	3				ShapeProc2	List4											10	Button1.png	Button2.png	Button3.png	Button4.png	Greenstar3.png							{button4}	0							0	TrialProc	ShapeList2				3	1	10	1	{button4}	Button	10	33	329690	0	{Button4}	2670	332360	Shape
