ExperimentName	Subject	Session	Clock.Information	DataFile.Basename	Display.RefreshRate	ExperimentVersion	Group	RandomSeed	RuntimeCapabilities	RuntimeVersion	RuntimeVersionExpected	SessionDate	SessionStartDateTimeUtc	SessionTime	StudioVersion	Block	List1	List1.Cycle	List1.Sample	List3	List3.Cycle	List3.Sample	Procedure[Block]	Running[Block]	Trial	CardIMG1[Trial]	CardIMG2[Trial]	CardIMG3[Trial]	CardIMG4[Trial]	CardStim[Trial]	Category	CorrectAnswer[Trial]	FeedbackDisplay2.ACC	FeedbackDisplay2.CRESP	FeedbackDisplay2.DurationError	FeedbackDisplay2.OnsetDelay	FeedbackDisplay2.OnsetTime	FeedbackDisplay2.OnsetToOnsetTime	FeedbackDisplay2.RESP	FeedbackDisplay2.RT	FeedbackDisplay2.RTTime	List2	List2.Cycle	List2.Sample	List4	List4.Cycle	List4.Sample	PracticeList	PracticeList.Cycle	PracticeList.Sample	Procedure[Trial]	Running[Trial]	Slide5.ACC	Slide5.CRESP	Slide5.DurationError	Slide5.OnsetDelay	Slide5.OnsetTime	Slide5.OnsetToOnsetTime	Slide5.RESP	Slide5.RT	SubTrial	CardIMG1[SubTrial]	CardIMG2[SubTrial]	CardIMG3[SubTrial]	CardIMG4[SubTrial]	CardStim[SubTrial]	ColorList	ColorList.Cycle	ColorList.Sample	ColorList2	ColorList2.Cycle	ColorList2.Sample	CorrectAnswer[SubTrial]	NonPerseverativeError	NumberList	NumberList.Cycle	NumberList.Sample	NumberList1	NumberList1.Cycle	NumberList1.Sample	PerseverativeError	Procedure[SubTrial]	Running[SubTrial]	ShapeList	ShapeList.Cycle	ShapeList.Sample	ShapeList1	ShapeList1.Cycle	ShapeList1.Sample	Stimulus.ACC	Stimulus.CRESP	Stimulus.DurationError	Stimulus.OnsetDelay	Stimulus.OnsetTime	Stimulus.OnsetToOnsetTime	Stimulus.RESP	Stimulus.RT	TrialType
Wisconsin	1173	2	<?xml version="1.0"?>\n<Clock xmlns:dt="urn:schemas-microsoft-com:datatypes"><Description dt:dt="string">E-Prime Primary Realtime Clock</Description><StartTime><Timestamp dt:dt="int">0</Timestamp><DateUtc dt:dt="string">2022-12-19T08:16:39Z</DateUtc></StartTime><FrequencyChanges><FrequencyChange><Frequency dt:dt="r8">2929853</Frequency><Timestamp dt:dt="r8">54830326864</Timestamp><Current dt:dt="r8">0</Current><DateUtc dt:dt="string">2022-12-19T08:16:39Z</DateUtc></FrequencyChange></FrequencyChanges></Clock>\n	Wisconsin-1173-2	59.957	1.0.0.548	1	-1003693031	Professional	2.0.10.356	2.0.10.356	12-19-2022	12/19/2022 8:16:39 AM	16:16:39	2.0.10.252	1	1	1	1				Practicebloc	List1	1	Button1.png	Button2.png	Button3.png	Button4.png	Greencircle3.png	顏色	z	0		0	24	90714	0		0	0							1	1	1	PracticeTrialProc	PracticeList	1	z	0	1	88146	0	z	2543																																						
Wisconsin	1173	2	<?xml version="1.0"?>\n<Clock xmlns:dt="urn:schemas-microsoft-com:datatypes"><Description dt:dt="string">E-Prime Primary Realtime Clock</Description><StartTime><Timestamp dt:dt="int">0</Timestamp><DateUtc dt:dt="string">2022-12-19T08:16:39Z</DateUtc></StartTime><FrequencyChanges><FrequencyChange><Frequency dt:dt="r8">2929853</Frequency><Timestamp dt:dt="r8">54830326864</Timestamp><Current dt:dt="r8">0</Current><DateUtc dt:dt="string">2022-12-19T08:16:39Z</DateUtc></FrequencyChange></FrequencyChanges></Clock>\n	Wisconsin-1173-2	59.957	1.0.0.548	1	-1003693031	Professional	2.0.10.356	2.0.10.356	12-19-2022	12/19/2022 8:16:39 AM	16:16:39	2.0.10.252	1	1	1	1				Practicebloc	List1	2	Button1.png	Button2.png	Button3.png	Button4.png	Redstar2.png	顏色	c	0		0	17	94867	0		0	0							2	1	2	PracticeTrialProc	PracticeList	1	c	0	1	93266	0	c	1583																																						
Wisconsin	1173	2	<?xml version="1.0"?>\n<Clock xmlns:dt="urn:schemas-microsoft-com:datatypes"><Description dt:dt="string">E-Prime Primary Realtime Clock</Description><StartTime><Timestamp dt:dt="int">0</Timestamp><DateUtc dt:dt="string">2022-12-19T08:16:39Z</DateUtc></StartTime><FrequencyChanges><FrequencyChange><Frequency dt:dt="r8">2929853</Frequency><Timestamp dt:dt="r8">54830326864</Timestamp><Current dt:dt="r8">0</Current><DateUtc dt:dt="string">2022-12-19T08:16:39Z</DateUtc></FrequencyChange></FrequencyChanges></Clock>\n	Wisconsin-1173-2	59.957	1.0.0.548	1	-1003693031	Professional	2.0.10.356	2.0.10.356	12-19-2022	12/19/2022 8:16:39 AM	16:16:39	2.0.10.252	1	1	1	1				Practicebloc	List1	3	Button1.png	Button2.png	Button3.png	Button4.png	Bluetriangle1.png	形狀	x	0		0	22	98503	0		0	0							3	1	3	PracticeTrialProc	PracticeList	1	x	0	1	97419	0	x	1061																																						
Wisconsin	1173	2	<?xml version="1.0"?>\n<Clock xmlns:dt="urn:schemas-microsoft-com:datatypes"><Description dt:dt="string">E-Prime Primary Realtime Clock</Description><StartTime><Timestamp dt:dt="int">0</Timestamp><DateUtc dt:dt="string">2022-12-19T08:16:39Z</DateUtc></StartTime><FrequencyChanges><FrequencyChange><Frequency dt:dt="r8">2929853</Frequency><Timestamp dt:dt="r8">54830326864</Timestamp><Current dt:dt="r8">0</Current><DateUtc dt:dt="string">2022-12-19T08:16:39Z</DateUtc></FrequencyChange></FrequencyChanges></Clock>\n	Wisconsin-1173-2	59.957	1.0.0.548	1	-1003693031	Professional	2.0.10.356	2.0.10.356	12-19-2022	12/19/2022 8:16:39 AM	16:16:39	2.0.10.252	1	1	1	1				Practicebloc	List1	4	Button1.png	Button2.png	Button3.png	Button4.png	greenstar2.png	形狀	v	0		0	17	103057	0		0	0							4	1	4	PracticeTrialProc	PracticeList	1	v	0	1	101055	0	v	1985																																						
Wisconsin	1173	2	<?xml version="1.0"?>\n<Clock xmlns:dt="urn:schemas-microsoft-com:datatypes"><Description dt:dt="string">E-Prime Primary Realtime Clock</Description><StartTime><Timestamp dt:dt="int">0</Timestamp><DateUtc dt:dt="string">2022-12-19T08:16:39Z</DateUtc></StartTime><FrequencyChanges><FrequencyChange><Frequency dt:dt="r8">2929853</Frequency><Timestamp dt:dt="r8">54830326864</Timestamp><Current dt:dt="r8">0</Current><DateUtc dt:dt="string">2022-12-19T08:16:39Z</DateUtc></FrequencyChange></FrequencyChanges></Clock>\n	Wisconsin-1173-2	59.957	1.0.0.548	1	-1003693031	Professional	2.0.10.356	2.0.10.356	12-19-2022	12/19/2022 8:16:39 AM	16:16:39	2.0.10.252	1	1	1	1				Practicebloc	List1	5	Button1.png	Button2.png	Button3.png	Button4.png	BlueCross4.png	數目	x	0		0	21	106776	0		0	0							5	1	5	PracticeTrialProc	PracticeList	1	x	1	0	105608	0	x	1144																																						
Wisconsin	1173	2	<?xml version="1.0"?>\n<Clock xmlns:dt="urn:schemas-microsoft-com:datatypes"><Description dt:dt="string">E-Prime Primary Realtime Clock</Description><StartTime><Timestamp dt:dt="int">0</Timestamp><DateUtc dt:dt="string">2022-12-19T08:16:39Z</DateUtc></StartTime><FrequencyChanges><FrequencyChange><Frequency dt:dt="r8">2929853</Frequency><Timestamp dt:dt="r8">54830326864</Timestamp><Current dt:dt="r8">0</Current><DateUtc dt:dt="string">2022-12-19T08:16:39Z</DateUtc></FrequencyChange></FrequencyChanges></Clock>\n	Wisconsin-1173-2	59.957	1.0.0.548	1	-1003693031	Professional	2.0.10.356	2.0.10.356	12-19-2022	12/19/2022 8:16:39 AM	16:16:39	2.0.10.252	1	1	1	1				Practicebloc	List1	6	Button1.png	Button2.png	Button3.png	Button4.png	yellowcircle2.png	數目	z	0		0	21	110295	0		0	0							6	1	6	PracticeTrialProc	PracticeList	1	z	0	1	109328	0	z	944																																						
Wisconsin	1173	2	<?xml version="1.0"?>\n<Clock xmlns:dt="urn:schemas-microsoft-com:datatypes"><Description dt:dt="string">E-Prime Primary Realtime Clock</Description><StartTime><Timestamp dt:dt="int">0</Timestamp><DateUtc dt:dt="string">2022-12-19T08:16:39Z</DateUtc></StartTime><FrequencyChanges><FrequencyChange><Frequency dt:dt="r8">2929853</Frequency><Timestamp dt:dt="r8">54830326864</Timestamp><Current dt:dt="r8">0</Current><DateUtc dt:dt="string">2022-12-19T08:16:39Z</DateUtc></FrequencyChange></FrequencyChanges></Clock>\n	Wisconsin-1173-2	59.957	1.0.0.548	1	-1003693031	Professional	2.0.10.356	2.0.10.356	12-19-2022	12/19/2022 8:16:39 AM	16:16:39	2.0.10.252	2				1	1	1	BlockProc	List3	1																	3	1	1							ShapeProc	List2									1	Button1.png	Button2.png	Button3.png	Button4.png	yellowcircle3.png							z	0							0	TrialProc	ShapeList	8	1	1				1	z	0	0	167770	0	z	2562	Shape
Wisconsin	1173	2	<?xml version="1.0"?>\n<Clock xmlns:dt="urn:schemas-microsoft-com:datatypes"><Description dt:dt="string">E-Prime Primary Realtime Clock</Description><StartTime><Timestamp dt:dt="int">0</Timestamp><DateUtc dt:dt="string">2022-12-19T08:16:39Z</DateUtc></StartTime><FrequencyChanges><FrequencyChange><Frequency dt:dt="r8">2929853</Frequency><Timestamp dt:dt="r8">54830326864</Timestamp><Current dt:dt="r8">0</Current><DateUtc dt:dt="string">2022-12-19T08:16:39Z</DateUtc></FrequencyChange></FrequencyChanges></Clock>\n	Wisconsin-1173-2	59.957	1.0.0.548	1	-1003693031	Professional	2.0.10.356	2.0.10.356	12-19-2022	12/19/2022 8:16:39 AM	16:16:39	2.0.10.252	2				1	1	1	BlockProc	List3	1																	3	1	1							ShapeProc	List2									2	Button1.png	Button2.png	Button3.png	Button4.png	Greencross1.png							c	1							0	TrialProc	ShapeList	3	1	2				0	c	0	1	172874	0	v	994	Shape
Wisconsin	1173	2	<?xml version="1.0"?>\n<Clock xmlns:dt="urn:schemas-microsoft-com:datatypes"><Description dt:dt="string">E-Prime Primary Realtime Clock</Description><StartTime><Timestamp dt:dt="int">0</Timestamp><DateUtc dt:dt="string">2022-12-19T08:16:39Z</DateUtc></StartTime><FrequencyChanges><FrequencyChange><Frequency dt:dt="r8">2929853</Frequency><Timestamp dt:dt="r8">54830326864</Timestamp><Current dt:dt="r8">0</Current><DateUtc dt:dt="string">2022-12-19T08:16:39Z</DateUtc></FrequencyChange></FrequencyChanges></Clock>\n	Wisconsin-1173-2	59.957	1.0.0.548	1	-1003693031	Professional	2.0.10.356	2.0.10.356	12-19-2022	12/19/2022 8:16:39 AM	16:16:39	2.0.10.252	2				1	1	1	BlockProc	List3	1																	3	1	1							ShapeProc	List2									3	Button1.png	Button2.png	Button3.png	Button4.png	Bluecross4.png							c	1							0	TrialProc	ShapeList	2	1	3				0	c	0	1	176410	0	v	1218	Shape
Wisconsin	1173	2	<?xml version="1.0"?>\n<Clock xmlns:dt="urn:schemas-microsoft-com:datatypes"><Description dt:dt="string">E-Prime Primary Realtime Clock</Description><StartTime><Timestamp dt:dt="int">0</Timestamp><DateUtc dt:dt="string">2022-12-19T08:16:39Z</DateUtc></StartTime><FrequencyChanges><FrequencyChange><Frequency dt:dt="r8">2929853</Frequency><Timestamp dt:dt="r8">54830326864</Timestamp><Current dt:dt="r8">0</Current><DateUtc dt:dt="string">2022-12-19T08:16:39Z</DateUtc></FrequencyChange></FrequencyChanges></Clock>\n	Wisconsin-1173-2	59.957	1.0.0.548	1	-1003693031	Professional	2.0.10.356	2.0.10.356	12-19-2022	12/19/2022 8:16:39 AM	16:16:39	2.0.10.252	2				1	1	1	BlockProc	List3	1																	3	1	1							ShapeProc	List2									4	Button1.png	Button2.png	Button3.png	Button4.png	Redtriangle1.png							x	1							0	TrialProc	ShapeList	7	1	4				0	x	0	1	180163	0	c	1033	Shape
Wisconsin	1173	2	<?xml version="1.0"?>\n<Clock xmlns:dt="urn:schemas-microsoft-com:datatypes"><Description dt:dt="string">E-Prime Primary Realtime Clock</Description><StartTime><Timestamp dt:dt="int">0</Timestamp><DateUtc dt:dt="string">2022-12-19T08:16:39Z</DateUtc></StartTime><FrequencyChanges><FrequencyChange><Frequency dt:dt="r8">2929853</Frequency><Timestamp dt:dt="r8">54830326864</Timestamp><Current dt:dt="r8">0</Current><DateUtc dt:dt="string">2022-12-19T08:16:39Z</DateUtc></FrequencyChange></FrequencyChanges></Clock>\n	Wisconsin-1173-2	59.957	1.0.0.548	1	-1003693031	Professional	2.0.10.356	2.0.10.356	12-19-2022	12/19/2022 8:16:39 AM	16:16:39	2.0.10.252	2				1	1	1	BlockProc	List3	1																	3	1	1							ShapeProc	List2									5	Button1.png	Button2.png	Button3.png	Button4.png	Redcross1.png							c	0							0	TrialProc	ShapeList	5	1	5				1	c	0	1	183732	0	c	1224	Shape
Wisconsin	1173	2	<?xml version="1.0"?>\n<Clock xmlns:dt="urn:schemas-microsoft-com:datatypes"><Description dt:dt="string">E-Prime Primary Realtime Clock</Description><StartTime><Timestamp dt:dt="int">0</Timestamp><DateUtc dt:dt="string">2022-12-19T08:16:39Z</DateUtc></StartTime><FrequencyChanges><FrequencyChange><Frequency dt:dt="r8">2929853</Frequency><Timestamp dt:dt="r8">54830326864</Timestamp><Current dt:dt="r8">0</Current><DateUtc dt:dt="string">2022-12-19T08:16:39Z</DateUtc></FrequencyChange></FrequencyChanges></Clock>\n	Wisconsin-1173-2	59.957	1.0.0.548	1	-1003693031	Professional	2.0.10.356	2.0.10.356	12-19-2022	12/19/2022 8:16:39 AM	16:16:39	2.0.10.252	2				1	1	1	BlockProc	List3	1																	3	1	1							ShapeProc	List2									6	Button1.png	Button2.png	Button3.png	Button4.png	Yellowstar4.png							v	1							0	TrialProc	ShapeList	10	1	6				0	v	0	1	187485	0	x	750	Shape
Wisconsin	1173	2	<?xml version="1.0"?>\n<Clock xmlns:dt="urn:schemas-microsoft-com:datatypes"><Description dt:dt="string">E-Prime Primary Realtime Clock</Description><StartTime><Timestamp dt:dt="int">0</Timestamp><DateUtc dt:dt="string">2022-12-19T08:16:39Z</DateUtc></StartTime><FrequencyChanges><FrequencyChange><Frequency dt:dt="r8">2929853</Frequency><Timestamp dt:dt="r8">54830326864</Timestamp><Current dt:dt="r8">0</Current><DateUtc dt:dt="string">2022-12-19T08:16:39Z</DateUtc></FrequencyChange></FrequencyChanges></Clock>\n	Wisconsin-1173-2	59.957	1.0.0.548	1	-1003693031	Professional	2.0.10.356	2.0.10.356	12-19-2022	12/19/2022 8:16:39 AM	16:16:39	2.0.10.252	2				1	1	1	BlockProc	List3	1																	3	1	1							ShapeProc	List2									7	Button1.png	Button2.png	Button3.png	Button4.png	Greentriangle4.png							x	0							0	TrialProc	ShapeList	4	1	7				1	x	0	0	190770	0	x	809	Shape
Wisconsin	1173	2	<?xml version="1.0"?>\n<Clock xmlns:dt="urn:schemas-microsoft-com:datatypes"><Description dt:dt="string">E-Prime Primary Realtime Clock</Description><StartTime><Timestamp dt:dt="int">0</Timestamp><DateUtc dt:dt="string">2022-12-19T08:16:39Z</DateUtc></StartTime><FrequencyChanges><FrequencyChange><Frequency dt:dt="r8">2929853</Frequency><Timestamp dt:dt="r8">54830326864</Timestamp><Current dt:dt="r8">0</Current><DateUtc dt:dt="string">2022-12-19T08:16:39Z</DateUtc></FrequencyChange></FrequencyChanges></Clock>\n	Wisconsin-1173-2	59.957	1.0.0.548	1	-1003693031	Professional	2.0.10.356	2.0.10.356	12-19-2022	12/19/2022 8:16:39 AM	16:16:39	2.0.10.252	2				1	1	1	BlockProc	List3	1																	3	1	1							ShapeProc	List2									8	Button1.png	Button2.png	Button3.png	Button4.png	Redcross4.png							c	0							0	TrialProc	ShapeList	6	1	8				1	c	0	1	194123	0	c	704	Shape
Wisconsin	1173	2	<?xml version="1.0"?>\n<Clock xmlns:dt="urn:schemas-microsoft-com:datatypes"><Description dt:dt="string">E-Prime Primary Realtime Clock</Description><StartTime><Timestamp dt:dt="int">0</Timestamp><DateUtc dt:dt="string">2022-12-19T08:16:39Z</DateUtc></StartTime><FrequencyChanges><FrequencyChange><Frequency dt:dt="r8">2929853</Frequency><Timestamp dt:dt="r8">54830326864</Timestamp><Current dt:dt="r8">0</Current><DateUtc dt:dt="string">2022-12-19T08:16:39Z</DateUtc></FrequencyChange></FrequencyChanges></Clock>\n	Wisconsin-1173-2	59.957	1.0.0.548	1	-1003693031	Professional	2.0.10.356	2.0.10.356	12-19-2022	12/19/2022 8:16:39 AM	16:16:39	2.0.10.252	2				1	1	1	BlockProc	List3	1																	3	1	1							ShapeProc	List2									9	Button1.png	Button2.png	Button3.png	Button4.png	Bluecircle2.png							z	1							0	TrialProc	ShapeList	1	1	9				0	z	0	1	197359	0	v	812	Shape
Wisconsin	1173	2	<?xml version="1.0"?>\n<Clock xmlns:dt="urn:schemas-microsoft-com:datatypes"><Description dt:dt="string">E-Prime Primary Realtime Clock</Description><StartTime><Timestamp dt:dt="int">0</Timestamp><DateUtc dt:dt="string">2022-12-19T08:16:39Z</DateUtc></StartTime><FrequencyChanges><FrequencyChange><Frequency dt:dt="r8">2929853</Frequency><Timestamp dt:dt="r8">54830326864</Timestamp><Current dt:dt="r8">0</Current><DateUtc dt:dt="string">2022-12-19T08:16:39Z</DateUtc></FrequencyChange></FrequencyChanges></Clock>\n	Wisconsin-1173-2	59.957	1.0.0.548	1	-1003693031	Professional	2.0.10.356	2.0.10.356	12-19-2022	12/19/2022 8:16:39 AM	16:16:39	2.0.10.252	2				1	1	1	BlockProc	List3	1																	3	1	1							ShapeProc	List2									10	Button1.png	Button2.png	Button3.png	Button4.png	Yellowstar1.png							v	1							0	TrialProc	ShapeList	9	1	10				0	v	0	1	200711	0	x	708	Shape
Wisconsin	1173	2	<?xml version="1.0"?>\n<Clock xmlns:dt="urn:schemas-microsoft-com:datatypes"><Description dt:dt="string">E-Prime Primary Realtime Clock</Description><StartTime><Timestamp dt:dt="int">0</Timestamp><DateUtc dt:dt="string">2022-12-19T08:16:39Z</DateUtc></StartTime><FrequencyChanges><FrequencyChange><Frequency dt:dt="r8">2929853</Frequency><Timestamp dt:dt="r8">54830326864</Timestamp><Current dt:dt="r8">0</Current><DateUtc dt:dt="string">2022-12-19T08:16:39Z</DateUtc></FrequencyChange></FrequencyChanges></Clock>\n	Wisconsin-1173-2	59.957	1.0.0.548	1	-1003693031	Professional	2.0.10.356	2.0.10.356	12-19-2022	12/19/2022 8:16:39 AM	16:16:39	2.0.10.252	2				1	1	1	BlockProc	List3	2																	1	1	2							ColorProc	List2									1	BUTTON1.png	BUTTON2.PNG	BUTTON3.png	BUTTON4.png	bluecross2.png	2	1	1				v	1							0	TrialProc	ColorList							0	v	0	1	203947	0	c	687	color
Wisconsin	1173	2	<?xml version="1.0"?>\n<Clock xmlns:dt="urn:schemas-microsoft-com:datatypes"><Description dt:dt="string">E-Prime Primary Realtime Clock</Description><StartTime><Timestamp dt:dt="int">0</Timestamp><DateUtc dt:dt="string">2022-12-19T08:16:39Z</DateUtc></StartTime><FrequencyChanges><FrequencyChange><Frequency dt:dt="r8">2929853</Frequency><Timestamp dt:dt="r8">54830326864</Timestamp><Current dt:dt="r8">0</Current><DateUtc dt:dt="string">2022-12-19T08:16:39Z</DateUtc></FrequencyChange></FrequencyChanges></Clock>\n	Wisconsin-1173-2	59.957	1.0.0.548	1	-1003693031	Professional	2.0.10.356	2.0.10.356	12-19-2022	12/19/2022 8:16:39 AM	16:16:39	2.0.10.252	2				1	1	1	BlockProc	List3	2																	1	1	2							ColorProc	List2									2	BUTTON1.png	BUTTON2.PNG	BUTTON3.png	BUTTON4.png	bluetriangle3.png	3	1	2				v	0							0	TrialProc	ColorList							1	v	0	1	207166	0	v	924	color
Wisconsin	1173	2	<?xml version="1.0"?>\n<Clock xmlns:dt="urn:schemas-microsoft-com:datatypes"><Description dt:dt="string">E-Prime Primary Realtime Clock</Description><StartTime><Timestamp dt:dt="int">0</Timestamp><DateUtc dt:dt="string">2022-12-19T08:16:39Z</DateUtc></StartTime><FrequencyChanges><FrequencyChange><Frequency dt:dt="r8">2929853</Frequency><Timestamp dt:dt="r8">54830326864</Timestamp><Current dt:dt="r8">0</Current><DateUtc dt:dt="string">2022-12-19T08:16:39Z</DateUtc></FrequencyChange></FrequencyChanges></Clock>\n	Wisconsin-1173-2	59.957	1.0.0.548	1	-1003693031	Professional	2.0.10.356	2.0.10.356	12-19-2022	12/19/2022 8:16:39 AM	16:16:39	2.0.10.252	2				1	1	1	BlockProc	List3	2																	1	1	2							ColorProc	List2									3	BUTTON1.png	BUTTON2.PNG	BUTTON3.png	BUTTON4.png	greentriangle1.png	6	1	3				z	1							0	TrialProc	ColorList							0	z	0	1	210618	0	x	976	color
Wisconsin	1173	2	<?xml version="1.0"?>\n<Clock xmlns:dt="urn:schemas-microsoft-com:datatypes"><Description dt:dt="string">E-Prime Primary Realtime Clock</Description><StartTime><Timestamp dt:dt="int">0</Timestamp><DateUtc dt:dt="string">2022-12-19T08:16:39Z</DateUtc></StartTime><FrequencyChanges><FrequencyChange><Frequency dt:dt="r8">2929853</Frequency><Timestamp dt:dt="r8">54830326864</Timestamp><Current dt:dt="r8">0</Current><DateUtc dt:dt="string">2022-12-19T08:16:39Z</DateUtc></FrequencyChange></FrequencyChanges></Clock>\n	Wisconsin-1173-2	59.957	1.0.0.548	1	-1003693031	Professional	2.0.10.356	2.0.10.356	12-19-2022	12/19/2022 8:16:39 AM	16:16:39	2.0.10.252	2				1	1	1	BlockProc	List3	2																	1	1	2							ColorProc	List2									4	BUTTON1.png	BUTTON2.PNG	BUTTON3.png	BUTTON4.png	redcircle3.png	8	1	4				c	0							0	TrialProc	ColorList							1	c	1	0	214137	0	c	833	color
Wisconsin	1173	2	<?xml version="1.0"?>\n<Clock xmlns:dt="urn:schemas-microsoft-com:datatypes"><Description dt:dt="string">E-Prime Primary Realtime Clock</Description><StartTime><Timestamp dt:dt="int">0</Timestamp><DateUtc dt:dt="string">2022-12-19T08:16:39Z</DateUtc></StartTime><FrequencyChanges><FrequencyChange><Frequency dt:dt="r8">2929853</Frequency><Timestamp dt:dt="r8">54830326864</Timestamp><Current dt:dt="r8">0</Current><DateUtc dt:dt="string">2022-12-19T08:16:39Z</DateUtc></FrequencyChange></FrequencyChanges></Clock>\n	Wisconsin-1173-2	59.957	1.0.0.548	1	-1003693031	Professional	2.0.10.356	2.0.10.356	12-19-2022	12/19/2022 8:16:39 AM	16:16:39	2.0.10.252	2				1	1	1	BlockProc	List3	2																	1	1	2							ColorProc	List2									5	BUTTON1.png	BUTTON2.PNG	BUTTON3.png	BUTTON4.png	greencircle3.png	4	1	5				z	0							0	TrialProc	ColorList							1	z	0	1	217507	0	z	1015	color
Wisconsin	1173	2	<?xml version="1.0"?>\n<Clock xmlns:dt="urn:schemas-microsoft-com:datatypes"><Description dt:dt="string">E-Prime Primary Realtime Clock</Description><StartTime><Timestamp dt:dt="int">0</Timestamp><DateUtc dt:dt="string">2022-12-19T08:16:39Z</DateUtc></StartTime><FrequencyChanges><FrequencyChange><Frequency dt:dt="r8">2929853</Frequency><Timestamp dt:dt="r8">54830326864</Timestamp><Current dt:dt="r8">0</Current><DateUtc dt:dt="string">2022-12-19T08:16:39Z</DateUtc></FrequencyChange></FrequencyChanges></Clock>\n	Wisconsin-1173-2	59.957	1.0.0.548	1	-1003693031	Professional	2.0.10.356	2.0.10.356	12-19-2022	12/19/2022 8:16:39 AM	16:16:39	2.0.10.252	2				1	1	1	BlockProc	List3	2																	1	1	2							ColorProc	List2									6	BUTTON1.png	BUTTON2.PNG	BUTTON3.png	BUTTON4.png	yellowstar3.png	10	1	6				x	0							0	TrialProc	ColorList							1	x	0	1	221059	0	x	630	color
Wisconsin	1173	2	<?xml version="1.0"?>\n<Clock xmlns:dt="urn:schemas-microsoft-com:datatypes"><Description dt:dt="string">E-Prime Primary Realtime Clock</Description><StartTime><Timestamp dt:dt="int">0</Timestamp><DateUtc dt:dt="string">2022-12-19T08:16:39Z</DateUtc></StartTime><FrequencyChanges><FrequencyChange><Frequency dt:dt="r8">2929853</Frequency><Timestamp dt:dt="r8">54830326864</Timestamp><Current dt:dt="r8">0</Current><DateUtc dt:dt="string">2022-12-19T08:16:39Z</DateUtc></FrequencyChange></FrequencyChanges></Clock>\n	Wisconsin-1173-2	59.957	1.0.0.548	1	-1003693031	Professional	2.0.10.356	2.0.10.356	12-19-2022	12/19/2022 8:16:39 AM	16:16:39	2.0.10.252	2				1	1	1	BlockProc	List3	2																	1	1	2							ColorProc	List2									7	BUTTON1.png	BUTTON2.PNG	BUTTON3.png	BUTTON4.png	greenstar2.png	5	1	7				z	1							0	TrialProc	ColorList							0	z	0	1	224228	0	v	1013	color
Wisconsin	1173	2	<?xml version="1.0"?>\n<Clock xmlns:dt="urn:schemas-microsoft-com:datatypes"><Description dt:dt="string">E-Prime Primary Realtime Clock</Description><StartTime><Timestamp dt:dt="int">0</Timestamp><DateUtc dt:dt="string">2022-12-19T08:16:39Z</DateUtc></StartTime><FrequencyChanges><FrequencyChange><Frequency dt:dt="r8">2929853</Frequency><Timestamp dt:dt="r8">54830326864</Timestamp><Current dt:dt="r8">0</Current><DateUtc dt:dt="string">2022-12-19T08:16:39Z</DateUtc></FrequencyChange></FrequencyChanges></Clock>\n	Wisconsin-1173-2	59.957	1.0.0.548	1	-1003693031	Professional	2.0.10.356	2.0.10.356	12-19-2022	12/19/2022 8:16:39 AM	16:16:39	2.0.10.252	2				1	1	1	BlockProc	List3	2																	1	1	2							ColorProc	List2									8	BUTTON1.png	BUTTON2.PNG	BUTTON3.png	BUTTON4.png	yellowcircle1.png	9	1	8				x	0							0	TrialProc	ColorList							1	x	0	1	227781	0	x	1124	color
Wisconsin	1173	2	<?xml version="1.0"?>\n<Clock xmlns:dt="urn:schemas-microsoft-com:datatypes"><Description dt:dt="string">E-Prime Primary Realtime Clock</Description><StartTime><Timestamp dt:dt="int">0</Timestamp><DateUtc dt:dt="string">2022-12-19T08:16:39Z</DateUtc></StartTime><FrequencyChanges><FrequencyChange><Frequency dt:dt="r8">2929853</Frequency><Timestamp dt:dt="r8">54830326864</Timestamp><Current dt:dt="r8">0</Current><DateUtc dt:dt="string">2022-12-19T08:16:39Z</DateUtc></FrequencyChange></FrequencyChanges></Clock>\n	Wisconsin-1173-2	59.957	1.0.0.548	1	-1003693031	Professional	2.0.10.356	2.0.10.356	12-19-2022	12/19/2022 8:16:39 AM	16:16:39	2.0.10.252	2				1	1	1	BlockProc	List3	2																	1	1	2							ColorProc	List2									9	BUTTON1.png	BUTTON2.PNG	BUTTON3.png	BUTTON4.png	greentriangle3.png	7	1	9				z	1							0	TrialProc	ColorList							0	z	0	0	231433	0	c	1200	color
Wisconsin	1173	2	<?xml version="1.0"?>\n<Clock xmlns:dt="urn:schemas-microsoft-com:datatypes"><Description dt:dt="string">E-Prime Primary Realtime Clock</Description><StartTime><Timestamp dt:dt="int">0</Timestamp><DateUtc dt:dt="string">2022-12-19T08:16:39Z</DateUtc></StartTime><FrequencyChanges><FrequencyChange><Frequency dt:dt="r8">2929853</Frequency><Timestamp dt:dt="r8">54830326864</Timestamp><Current dt:dt="r8">0</Current><DateUtc dt:dt="string">2022-12-19T08:16:39Z</DateUtc></FrequencyChange></FrequencyChanges></Clock>\n	Wisconsin-1173-2	59.957	1.0.0.548	1	-1003693031	Professional	2.0.10.356	2.0.10.356	12-19-2022	12/19/2022 8:16:39 AM	16:16:39	2.0.10.252	2				1	1	1	BlockProc	List3	2																	1	1	2							ColorProc	List2									10	BUTTON1.png	BUTTON2.PNG	BUTTON3.png	BUTTON4.png	bluecircle1.png	1	1	10				v	0							0	TrialProc	ColorList							1	v	0	0	235169	0	v	728	color
Wisconsin	1173	2	<?xml version="1.0"?>\n<Clock xmlns:dt="urn:schemas-microsoft-com:datatypes"><Description dt:dt="string">E-Prime Primary Realtime Clock</Description><StartTime><Timestamp dt:dt="int">0</Timestamp><DateUtc dt:dt="string">2022-12-19T08:16:39Z</DateUtc></StartTime><FrequencyChanges><FrequencyChange><Frequency dt:dt="r8">2929853</Frequency><Timestamp dt:dt="r8">54830326864</Timestamp><Current dt:dt="r8">0</Current><DateUtc dt:dt="string">2022-12-19T08:16:39Z</DateUtc></FrequencyChange></FrequencyChanges></Clock>\n	Wisconsin-1173-2	59.957	1.0.0.548	1	-1003693031	Professional	2.0.10.356	2.0.10.356	12-19-2022	12/19/2022 8:16:39 AM	16:16:39	2.0.10.252	2				1	1	1	BlockProc	List3	3																	2	1	3							NumberProc	List2									1	Button1.png	Button2.png	Button3.png	Button4.png	Redtriangle4.png							x	1	8	1	1				0	TrialProc	NumberList							0	x	0	0	238438	0	c	675	number
Wisconsin	1173	2	<?xml version="1.0"?>\n<Clock xmlns:dt="urn:schemas-microsoft-com:datatypes"><Description dt:dt="string">E-Prime Primary Realtime Clock</Description><StartTime><Timestamp dt:dt="int">0</Timestamp><DateUtc dt:dt="string">2022-12-19T08:16:39Z</DateUtc></StartTime><FrequencyChanges><FrequencyChange><Frequency dt:dt="r8">2929853</Frequency><Timestamp dt:dt="r8">54830326864</Timestamp><Current dt:dt="r8">0</Current><DateUtc dt:dt="string">2022-12-19T08:16:39Z</DateUtc></FrequencyChange></FrequencyChanges></Clock>\n	Wisconsin-1173-2	59.957	1.0.0.548	1	-1003693031	Professional	2.0.10.356	2.0.10.356	12-19-2022	12/19/2022 8:16:39 AM	16:16:39	2.0.10.252	2				1	1	1	BlockProc	List3	3																	2	1	3							NumberProc	List2									2	Button1.png	Button2.png	Button3.png	Button4.png	Yellowcross3.png							c	1	10	1	2				0	TrialProc	NumberList							0	c	0	1	241641	0	x	847	number
Wisconsin	1173	2	<?xml version="1.0"?>\n<Clock xmlns:dt="urn:schemas-microsoft-com:datatypes"><Description dt:dt="string">E-Prime Primary Realtime Clock</Description><StartTime><Timestamp dt:dt="int">0</Timestamp><DateUtc dt:dt="string">2022-12-19T08:16:39Z</DateUtc></StartTime><FrequencyChanges><FrequencyChange><Frequency dt:dt="r8">2929853</Frequency><Timestamp dt:dt="r8">54830326864</Timestamp><Current dt:dt="r8">0</Current><DateUtc dt:dt="string">2022-12-19T08:16:39Z</DateUtc></FrequencyChange></FrequencyChanges></Clock>\n	Wisconsin-1173-2	59.957	1.0.0.548	1	-1003693031	Professional	2.0.10.356	2.0.10.356	12-19-2022	12/19/2022 8:16:39 AM	16:16:39	2.0.10.252	2				1	1	1	BlockProc	List3	3																	2	1	3							NumberProc	List2									3	Button1.png	Button2.png	Button3.png	Button4.png	Yellowcross1.png							v	0	9	1	3				0	TrialProc	NumberList							1	v	1	0	245026	0	v	1030	number
Wisconsin	1173	2	<?xml version="1.0"?>\n<Clock xmlns:dt="urn:schemas-microsoft-com:datatypes"><Description dt:dt="string">E-Prime Primary Realtime Clock</Description><StartTime><Timestamp dt:dt="int">0</Timestamp><DateUtc dt:dt="string">2022-12-19T08:16:39Z</DateUtc></StartTime><FrequencyChanges><FrequencyChange><Frequency dt:dt="r8">2929853</Frequency><Timestamp dt:dt="r8">54830326864</Timestamp><Current dt:dt="r8">0</Current><DateUtc dt:dt="string">2022-12-19T08:16:39Z</DateUtc></FrequencyChange></FrequencyChanges></Clock>\n	Wisconsin-1173-2	59.957	1.0.0.548	1	-1003693031	Professional	2.0.10.356	2.0.10.356	12-19-2022	12/19/2022 8:16:39 AM	16:16:39	2.0.10.252	2				1	1	1	BlockProc	List3	3																	2	1	3							NumberProc	List2									4	Button1.png	Button2.png	Button3.png	Button4.png	Redstar2.png							z	1	7	1	4				0	TrialProc	NumberList							0	z	0	1	248596	0	c	628	number
Wisconsin	1173	2	<?xml version="1.0"?>\n<Clock xmlns:dt="urn:schemas-microsoft-com:datatypes"><Description dt:dt="string">E-Prime Primary Realtime Clock</Description><StartTime><Timestamp dt:dt="int">0</Timestamp><DateUtc dt:dt="string">2022-12-19T08:16:39Z</DateUtc></StartTime><FrequencyChanges><FrequencyChange><Frequency dt:dt="r8">2929853</Frequency><Timestamp dt:dt="r8">54830326864</Timestamp><Current dt:dt="r8">0</Current><DateUtc dt:dt="string">2022-12-19T08:16:39Z</DateUtc></FrequencyChange></FrequencyChanges></Clock>\n	Wisconsin-1173-2	59.957	1.0.0.548	1	-1003693031	Professional	2.0.10.356	2.0.10.356	12-19-2022	12/19/2022 8:16:39 AM	16:16:39	2.0.10.252	2				1	1	1	BlockProc	List3	3																	2	1	3							NumberProc	List2									5	Button1.png	Button2.png	Button3.png	Button4.png	Greencross3.png							c	0	5	1	5				0	TrialProc	NumberList							1	c	0	1	251765	0	c	1059	number
Wisconsin	1173	2	<?xml version="1.0"?>\n<Clock xmlns:dt="urn:schemas-microsoft-com:datatypes"><Description dt:dt="string">E-Prime Primary Realtime Clock</Description><StartTime><Timestamp dt:dt="int">0</Timestamp><DateUtc dt:dt="string">2022-12-19T08:16:39Z</DateUtc></StartTime><FrequencyChanges><FrequencyChange><Frequency dt:dt="r8">2929853</Frequency><Timestamp dt:dt="r8">54830326864</Timestamp><Current dt:dt="r8">0</Current><DateUtc dt:dt="string">2022-12-19T08:16:39Z</DateUtc></FrequencyChange></FrequencyChanges></Clock>\n	Wisconsin-1173-2	59.957	1.0.0.548	1	-1003693031	Professional	2.0.10.356	2.0.10.356	12-19-2022	12/19/2022 8:16:39 AM	16:16:39	2.0.10.252	2				1	1	1	BlockProc	List3	3																	2	1	3							NumberProc	List2									6	Button1.png	Button2.png	Button3.png	Button4.png	Bluestar2.png							z	1	2	1	6				0	TrialProc	NumberList							0	z	0	0	255367	0	v	1057	number
Wisconsin	1173	2	<?xml version="1.0"?>\n<Clock xmlns:dt="urn:schemas-microsoft-com:datatypes"><Description dt:dt="string">E-Prime Primary Realtime Clock</Description><StartTime><Timestamp dt:dt="int">0</Timestamp><DateUtc dt:dt="string">2022-12-19T08:16:39Z</DateUtc></StartTime><FrequencyChanges><FrequencyChange><Frequency dt:dt="r8">2929853</Frequency><Timestamp dt:dt="r8">54830326864</Timestamp><Current dt:dt="r8">0</Current><DateUtc dt:dt="string">2022-12-19T08:16:39Z</DateUtc></FrequencyChange></FrequencyChanges></Clock>\n	Wisconsin-1173-2	59.957	1.0.0.548	1	-1003693031	Professional	2.0.10.356	2.0.10.356	12-19-2022	12/19/2022 8:16:39 AM	16:16:39	2.0.10.252	2				1	1	1	BlockProc	List3	3																	2	1	3							NumberProc	List2									7	Button1.png	Button2.png	Button3.png	Button4.png	Bluecircle4.png							x	0	1	1	7				0	TrialProc	NumberList							1	x	0	0	258953	0	x	1118	number
Wisconsin	1173	2	<?xml version="1.0"?>\n<Clock xmlns:dt="urn:schemas-microsoft-com:datatypes"><Description dt:dt="string">E-Prime Primary Realtime Clock</Description><StartTime><Timestamp dt:dt="int">0</Timestamp><DateUtc dt:dt="string">2022-12-19T08:16:39Z</DateUtc></StartTime><FrequencyChanges><FrequencyChange><Frequency dt:dt="r8">2929853</Frequency><Timestamp dt:dt="r8">54830326864</Timestamp><Current dt:dt="r8">0</Current><DateUtc dt:dt="string">2022-12-19T08:16:39Z</DateUtc></FrequencyChange></FrequencyChanges></Clock>\n	Wisconsin-1173-2	59.957	1.0.0.548	1	-1003693031	Professional	2.0.10.356	2.0.10.356	12-19-2022	12/19/2022 8:16:39 AM	16:16:39	2.0.10.252	2				1	1	1	BlockProc	List3	3																	2	1	3							NumberProc	List2									8	Button1.png	Button2.png	Button3.png	Button4.png	Greencircle4.png							x	0	4	1	8				0	TrialProc	NumberList							1	x	0	1	262606	0	x	1209	number
Wisconsin	1173	2	<?xml version="1.0"?>\n<Clock xmlns:dt="urn:schemas-microsoft-com:datatypes"><Description dt:dt="string">E-Prime Primary Realtime Clock</Description><StartTime><Timestamp dt:dt="int">0</Timestamp><DateUtc dt:dt="string">2022-12-19T08:16:39Z</DateUtc></StartTime><FrequencyChanges><FrequencyChange><Frequency dt:dt="r8">2929853</Frequency><Timestamp dt:dt="r8">54830326864</Timestamp><Current dt:dt="r8">0</Current><DateUtc dt:dt="string">2022-12-19T08:16:39Z</DateUtc></FrequencyChange></FrequencyChanges></Clock>\n	Wisconsin-1173-2	59.957	1.0.0.548	1	-1003693031	Professional	2.0.10.356	2.0.10.356	12-19-2022	12/19/2022 8:16:39 AM	16:16:39	2.0.10.252	2				1	1	1	BlockProc	List3	3																	2	1	3							NumberProc	List2									9	Button1.png	Button2.png	Button3.png	Button4.png	Bluetriangle1.png							v	0	3	1	9				0	TrialProc	NumberList							1	v	0	1	266342	0	v	721	number
Wisconsin	1173	2	<?xml version="1.0"?>\n<Clock xmlns:dt="urn:schemas-microsoft-com:datatypes"><Description dt:dt="string">E-Prime Primary Realtime Clock</Description><StartTime><Timestamp dt:dt="int">0</Timestamp><DateUtc dt:dt="string">2022-12-19T08:16:39Z</DateUtc></StartTime><FrequencyChanges><FrequencyChange><Frequency dt:dt="r8">2929853</Frequency><Timestamp dt:dt="r8">54830326864</Timestamp><Current dt:dt="r8">0</Current><DateUtc dt:dt="string">2022-12-19T08:16:39Z</DateUtc></FrequencyChange></FrequencyChanges></Clock>\n	Wisconsin-1173-2	59.957	1.0.0.548	1	-1003693031	Professional	2.0.10.356	2.0.10.356	12-19-2022	12/19/2022 8:16:39 AM	16:16:39	2.0.10.252	2				1	1	1	BlockProc	List3	3																	2	1	3							NumberProc	List2									10	Button1.png	Button2.png	Button3.png	Button4.png	Redcircle4.png							x	1	6	1	10				0	TrialProc	NumberList							0	x	0	0	269594	0	c	733	number
Wisconsin	1173	2	<?xml version="1.0"?>\n<Clock xmlns:dt="urn:schemas-microsoft-com:datatypes"><Description dt:dt="string">E-Prime Primary Realtime Clock</Description><StartTime><Timestamp dt:dt="int">0</Timestamp><DateUtc dt:dt="string">2022-12-19T08:16:39Z</DateUtc></StartTime><FrequencyChanges><FrequencyChange><Frequency dt:dt="r8">2929853</Frequency><Timestamp dt:dt="r8">54830326864</Timestamp><Current dt:dt="r8">0</Current><DateUtc dt:dt="string">2022-12-19T08:16:39Z</DateUtc></FrequencyChange></FrequencyChanges></Clock>\n	Wisconsin-1173-2	59.957	1.0.0.548	1	-1003693031	Professional	2.0.10.356	2.0.10.356	12-19-2022	12/19/2022 8:16:39 AM	16:16:39	2.0.10.252	3				2	1	2	BlockProc2	List3	1																				3	1	1				ShapeProc2	List4									1	Button1.png	Button2.png	Button3.png	Button4.png	Redstar3.png							v	1							0	TrialProc	ShapeList1				6	1	1	0	v	0	0	272863	0	c	696	Shape
Wisconsin	1173	2	<?xml version="1.0"?>\n<Clock xmlns:dt="urn:schemas-microsoft-com:datatypes"><Description dt:dt="string">E-Prime Primary Realtime Clock</Description><StartTime><Timestamp dt:dt="int">0</Timestamp><DateUtc dt:dt="string">2022-12-19T08:16:39Z</DateUtc></StartTime><FrequencyChanges><FrequencyChange><Frequency dt:dt="r8">2929853</Frequency><Timestamp dt:dt="r8">54830326864</Timestamp><Current dt:dt="r8">0</Current><DateUtc dt:dt="string">2022-12-19T08:16:39Z</DateUtc></FrequencyChange></FrequencyChanges></Clock>\n	Wisconsin-1173-2	59.957	1.0.0.548	1	-1003693031	Professional	2.0.10.356	2.0.10.356	12-19-2022	12/19/2022 8:16:39 AM	16:16:39	2.0.10.252	3				2	1	2	BlockProc2	List3	1																				3	1	1				ShapeProc2	List4									2	Button1.png	Button2.png	Button3.png	Button4.png	Bluecircle3.png							z	1							0	TrialProc	ShapeList1				1	1	2	0	z	0	1	276099	0	v	787	Shape
Wisconsin	1173	2	<?xml version="1.0"?>\n<Clock xmlns:dt="urn:schemas-microsoft-com:datatypes"><Description dt:dt="string">E-Prime Primary Realtime Clock</Description><StartTime><Timestamp dt:dt="int">0</Timestamp><DateUtc dt:dt="string">2022-12-19T08:16:39Z</DateUtc></StartTime><FrequencyChanges><FrequencyChange><Frequency dt:dt="r8">2929853</Frequency><Timestamp dt:dt="r8">54830326864</Timestamp><Current dt:dt="r8">0</Current><DateUtc dt:dt="string">2022-12-19T08:16:39Z</DateUtc></FrequencyChange></FrequencyChanges></Clock>\n	Wisconsin-1173-2	59.957	1.0.0.548	1	-1003693031	Professional	2.0.10.356	2.0.10.356	12-19-2022	12/19/2022 8:16:39 AM	16:16:39	2.0.10.252	3				2	1	2	BlockProc2	List3	1																				3	1	1				ShapeProc2	List4									3	Button1.png	Button2.png	Button3.png	Button4.png	Yellowtriangle1.png							x	0							0	TrialProc	ShapeList1				10	1	3	1	x	0	1	279418	0	x	1084	Shape
Wisconsin	1173	2	<?xml version="1.0"?>\n<Clock xmlns:dt="urn:schemas-microsoft-com:datatypes"><Description dt:dt="string">E-Prime Primary Realtime Clock</Description><StartTime><Timestamp dt:dt="int">0</Timestamp><DateUtc dt:dt="string">2022-12-19T08:16:39Z</DateUtc></StartTime><FrequencyChanges><FrequencyChange><Frequency dt:dt="r8">2929853</Frequency><Timestamp dt:dt="r8">54830326864</Timestamp><Current dt:dt="r8">0</Current><DateUtc dt:dt="string">2022-12-19T08:16:39Z</DateUtc></FrequencyChange></FrequencyChanges></Clock>\n	Wisconsin-1173-2	59.957	1.0.0.548	1	-1003693031	Professional	2.0.10.356	2.0.10.356	12-19-2022	12/19/2022 8:16:39 AM	16:16:39	2.0.10.252	3				2	1	2	BlockProc2	List3	1																				3	1	1				ShapeProc2	List4									4	Button1.png	Button2.png	Button3.png	Button4.png	Redcross2.png							c	0							0	TrialProc	ShapeList1				5	1	4	1	c	1	0	283037	0	c	793	Shape
Wisconsin	1173	2	<?xml version="1.0"?>\n<Clock xmlns:dt="urn:schemas-microsoft-com:datatypes"><Description dt:dt="string">E-Prime Primary Realtime Clock</Description><StartTime><Timestamp dt:dt="int">0</Timestamp><DateUtc dt:dt="string">2022-12-19T08:16:39Z</DateUtc></StartTime><FrequencyChanges><FrequencyChange><Frequency dt:dt="r8">2929853</Frequency><Timestamp dt:dt="r8">54830326864</Timestamp><Current dt:dt="r8">0</Current><DateUtc dt:dt="string">2022-12-19T08:16:39Z</DateUtc></FrequencyChange></FrequencyChanges></Clock>\n	Wisconsin-1173-2	59.957	1.0.0.548	1	-1003693031	Professional	2.0.10.356	2.0.10.356	12-19-2022	12/19/2022 8:16:39 AM	16:16:39	2.0.10.252	3				2	1	2	BlockProc2	List3	1																				3	1	1				ShapeProc2	List4									5	Button1.png	Button2.png	Button3.png	Button4.png	Yellowstar2.png							v	1							0	TrialProc	ShapeList1				9	1	5	0	v	0	1	286373	0	x	737	Shape
Wisconsin	1173	2	<?xml version="1.0"?>\n<Clock xmlns:dt="urn:schemas-microsoft-com:datatypes"><Description dt:dt="string">E-Prime Primary Realtime Clock</Description><StartTime><Timestamp dt:dt="int">0</Timestamp><DateUtc dt:dt="string">2022-12-19T08:16:39Z</DateUtc></StartTime><FrequencyChanges><FrequencyChange><Frequency dt:dt="r8">2929853</Frequency><Timestamp dt:dt="r8">54830326864</Timestamp><Current dt:dt="r8">0</Current><DateUtc dt:dt="string">2022-12-19T08:16:39Z</DateUtc></FrequencyChange></FrequencyChanges></Clock>\n	Wisconsin-1173-2	59.957	1.0.0.548	1	-1003693031	Professional	2.0.10.356	2.0.10.356	12-19-2022	12/19/2022 8:16:39 AM	16:16:39	2.0.10.252	3				2	1	2	BlockProc2	List3	1																				3	1	1				ShapeProc2	List4									6	Button1.png	Button2.png	Button3.png	Button4.png	redcircle1.png							z	1							0	TrialProc	ShapeList1				4	1	6	0	z	0	0	289642	0	v	892	Shape
Wisconsin	1173	2	<?xml version="1.0"?>\n<Clock xmlns:dt="urn:schemas-microsoft-com:datatypes"><Description dt:dt="string">E-Prime Primary Realtime Clock</Description><StartTime><Timestamp dt:dt="int">0</Timestamp><DateUtc dt:dt="string">2022-12-19T08:16:39Z</DateUtc></StartTime><FrequencyChanges><FrequencyChange><Frequency dt:dt="r8">2929853</Frequency><Timestamp dt:dt="r8">54830326864</Timestamp><Current dt:dt="r8">0</Current><DateUtc dt:dt="string">2022-12-19T08:16:39Z</DateUtc></FrequencyChange></FrequencyChanges></Clock>\n	Wisconsin-1173-2	59.957	1.0.0.548	1	-1003693031	Professional	2.0.10.356	2.0.10.356	12-19-2022	12/19/2022 8:16:39 AM	16:16:39	2.0.10.252	3				2	1	2	BlockProc2	List3	1																				3	1	1				ShapeProc2	List4									7	Button1.png	Button2.png	Button3.png	Button4.png	yellowcross4.png							c	1							0	TrialProc	ShapeList1				8	1	7	0	c	0	1	293078	0	x	703	Shape
Wisconsin	1173	2	<?xml version="1.0"?>\n<Clock xmlns:dt="urn:schemas-microsoft-com:datatypes"><Description dt:dt="string">E-Prime Primary Realtime Clock</Description><StartTime><Timestamp dt:dt="int">0</Timestamp><DateUtc dt:dt="string">2022-12-19T08:16:39Z</DateUtc></StartTime><FrequencyChanges><FrequencyChange><Frequency dt:dt="r8">2929853</Frequency><Timestamp dt:dt="r8">54830326864</Timestamp><Current dt:dt="r8">0</Current><DateUtc dt:dt="string">2022-12-19T08:16:39Z</DateUtc></FrequencyChange></FrequencyChanges></Clock>\n	Wisconsin-1173-2	59.957	1.0.0.548	1	-1003693031	Professional	2.0.10.356	2.0.10.356	12-19-2022	12/19/2022 8:16:39 AM	16:16:39	2.0.10.252	3				2	1	2	BlockProc2	List3	1																				3	1	1				ShapeProc2	List4									8	Button1.png	Button2.png	Button3.png	Button4.png	Redtriangle3.png							x	1							0	TrialProc	ShapeList1				7	1	8	0	x	0	1	296314	0	c	603	Shape
Wisconsin	1173	2	<?xml version="1.0"?>\n<Clock xmlns:dt="urn:schemas-microsoft-com:datatypes"><Description dt:dt="string">E-Prime Primary Realtime Clock</Description><StartTime><Timestamp dt:dt="int">0</Timestamp><DateUtc dt:dt="string">2022-12-19T08:16:39Z</DateUtc></StartTime><FrequencyChanges><FrequencyChange><Frequency dt:dt="r8">2929853</Frequency><Timestamp dt:dt="r8">54830326864</Timestamp><Current dt:dt="r8">0</Current><DateUtc dt:dt="string">2022-12-19T08:16:39Z</DateUtc></FrequencyChange></FrequencyChanges></Clock>\n	Wisconsin-1173-2	59.957	1.0.0.548	1	-1003693031	Professional	2.0.10.356	2.0.10.356	12-19-2022	12/19/2022 8:16:39 AM	16:16:39	2.0.10.252	3				2	1	2	BlockProc2	List3	1																				3	1	1				ShapeProc2	List4									9	Button1.png	Button2.png	Button3.png	Button4.png	Bluetriangle2.png							x	1							0	TrialProc	ShapeList1				2	1	9	0	x	0	0	299449	0	v	972	Shape
Wisconsin	1173	2	<?xml version="1.0"?>\n<Clock xmlns:dt="urn:schemas-microsoft-com:datatypes"><Description dt:dt="string">E-Prime Primary Realtime Clock</Description><StartTime><Timestamp dt:dt="int">0</Timestamp><DateUtc dt:dt="string">2022-12-19T08:16:39Z</DateUtc></StartTime><FrequencyChanges><FrequencyChange><Frequency dt:dt="r8">2929853</Frequency><Timestamp dt:dt="r8">54830326864</Timestamp><Current dt:dt="r8">0</Current><DateUtc dt:dt="string">2022-12-19T08:16:39Z</DateUtc></FrequencyChange></FrequencyChanges></Clock>\n	Wisconsin-1173-2	59.957	1.0.0.548	1	-1003693031	Professional	2.0.10.356	2.0.10.356	12-19-2022	12/19/2022 8:16:39 AM	16:16:39	2.0.10.252	3				2	1	2	BlockProc2	List3	1																				3	1	1				ShapeProc2	List4									10	Button1.png	Button2.png	Button3.png	Button4.png	Greenstar3.png							v	1							0	TrialProc	ShapeList1				3	1	10	0	v	0	1	302952	0	c	957	Shape
Wisconsin	1173	2	<?xml version="1.0"?>\n<Clock xmlns:dt="urn:schemas-microsoft-com:datatypes"><Description dt:dt="string">E-Prime Primary Realtime Clock</Description><StartTime><Timestamp dt:dt="int">0</Timestamp><DateUtc dt:dt="string">2022-12-19T08:16:39Z</DateUtc></StartTime><FrequencyChanges><FrequencyChange><Frequency dt:dt="r8">2929853</Frequency><Timestamp dt:dt="r8">54830326864</Timestamp><Current dt:dt="r8">0</Current><DateUtc dt:dt="string">2022-12-19T08:16:39Z</DateUtc></FrequencyChange></FrequencyChanges></Clock>\n	Wisconsin-1173-2	59.957	1.0.0.548	1	-1003693031	Professional	2.0.10.356	2.0.10.356	12-19-2022	12/19/2022 8:16:39 AM	16:16:39	2.0.10.252	3				2	1	2	BlockProc2	List3	2																				1	1	2				ColorProc2	List4									1	BUTTON1.png	BUTTON2.PNG	BUTTON3.png	BUTTON4.png	yellowtriangle3.png				10	1	1	x	0							0	TrialProc	ColorList2							1	x	0	1	306438	0	x	815	color
Wisconsin	1173	2	<?xml version="1.0"?>\n<Clock xmlns:dt="urn:schemas-microsoft-com:datatypes"><Description dt:dt="string">E-Prime Primary Realtime Clock</Description><StartTime><Timestamp dt:dt="int">0</Timestamp><DateUtc dt:dt="string">2022-12-19T08:16:39Z</DateUtc></StartTime><FrequencyChanges><FrequencyChange><Frequency dt:dt="r8">2929853</Frequency><Timestamp dt:dt="r8">54830326864</Timestamp><Current dt:dt="r8">0</Current><DateUtc dt:dt="string">2022-12-19T08:16:39Z</DateUtc></FrequencyChange></FrequencyChanges></Clock>\n	Wisconsin-1173-2	59.957	1.0.0.548	1	-1003693031	Professional	2.0.10.356	2.0.10.356	12-19-2022	12/19/2022 8:16:39 AM	16:16:39	2.0.10.252	3				2	1	2	BlockProc2	List3	2																				1	1	2				ColorProc2	List4									2	BUTTON1.png	BUTTON2.PNG	BUTTON3.png	BUTTON4.png	Greencircle1.png				3	1	2	z	0							0	TrialProc	ColorList2							1	z	0	1	309790	0	z	934	color
Wisconsin	1173	2	<?xml version="1.0"?>\n<Clock xmlns:dt="urn:schemas-microsoft-com:datatypes"><Description dt:dt="string">E-Prime Primary Realtime Clock</Description><StartTime><Timestamp dt:dt="int">0</Timestamp><DateUtc dt:dt="string">2022-12-19T08:16:39Z</DateUtc></StartTime><FrequencyChanges><FrequencyChange><Frequency dt:dt="r8">2929853</Frequency><Timestamp dt:dt="r8">54830326864</Timestamp><Current dt:dt="r8">0</Current><DateUtc dt:dt="string">2022-12-19T08:16:39Z</DateUtc></FrequencyChange></FrequencyChanges></Clock>\n	Wisconsin-1173-2	59.957	1.0.0.548	1	-1003693031	Professional	2.0.10.356	2.0.10.356	12-19-2022	12/19/2022 8:16:39 AM	16:16:39	2.0.10.252	3				2	1	2	BlockProc2	List3	2																				1	1	2				ColorProc2	List4									3	BUTTON1.png	BUTTON2.PNG	BUTTON3.png	BUTTON4.png	redstar4.png				8	1	3	c	0							0	TrialProc	ColorList2							1	c	0	0	313259	0	c	761	color
Wisconsin	1173	2	<?xml version="1.0"?>\n<Clock xmlns:dt="urn:schemas-microsoft-com:datatypes"><Description dt:dt="string">E-Prime Primary Realtime Clock</Description><StartTime><Timestamp dt:dt="int">0</Timestamp><DateUtc dt:dt="string">2022-12-19T08:16:39Z</DateUtc></StartTime><FrequencyChanges><FrequencyChange><Frequency dt:dt="r8">2929853</Frequency><Timestamp dt:dt="r8">54830326864</Timestamp><Current dt:dt="r8">0</Current><DateUtc dt:dt="string">2022-12-19T08:16:39Z</DateUtc></FrequencyChange></FrequencyChanges></Clock>\n	Wisconsin-1173-2	59.957	1.0.0.548	1	-1003693031	Professional	2.0.10.356	2.0.10.356	12-19-2022	12/19/2022 8:16:39 AM	16:16:39	2.0.10.252	3				2	1	2	BlockProc2	List3	2																				1	1	2				ColorProc2	List4									4	BUTTON1.png	BUTTON2.PNG	BUTTON3.png	BUTTON4.png	bluestar3.png				2	1	4	v	0							0	TrialProc	ColorList2							1	v	0	1	316562	0	v	818	color
Wisconsin	1173	2	<?xml version="1.0"?>\n<Clock xmlns:dt="urn:schemas-microsoft-com:datatypes"><Description dt:dt="string">E-Prime Primary Realtime Clock</Description><StartTime><Timestamp dt:dt="int">0</Timestamp><DateUtc dt:dt="string">2022-12-19T08:16:39Z</DateUtc></StartTime><FrequencyChanges><FrequencyChange><Frequency dt:dt="r8">2929853</Frequency><Timestamp dt:dt="r8">54830326864</Timestamp><Current dt:dt="r8">0</Current><DateUtc dt:dt="string">2022-12-19T08:16:39Z</DateUtc></FrequencyChange></FrequencyChanges></Clock>\n	Wisconsin-1173-2	59.957	1.0.0.548	1	-1003693031	Professional	2.0.10.356	2.0.10.356	12-19-2022	12/19/2022 8:16:39 AM	16:16:39	2.0.10.252	3				2	1	2	BlockProc2	List3	2																				1	1	2				ColorProc2	List4									5	BUTTON1.png	BUTTON2.PNG	BUTTON3.png	BUTTON4.png	greencross4.png				4	1	5	z	1							0	TrialProc	ColorList2							0	z	0	0	319914	0	c	810	color
Wisconsin	1173	2	<?xml version="1.0"?>\n<Clock xmlns:dt="urn:schemas-microsoft-com:datatypes"><Description dt:dt="string">E-Prime Primary Realtime Clock</Description><StartTime><Timestamp dt:dt="int">0</Timestamp><DateUtc dt:dt="string">2022-12-19T08:16:39Z</DateUtc></StartTime><FrequencyChanges><FrequencyChange><Frequency dt:dt="r8">2929853</Frequency><Timestamp dt:dt="r8">54830326864</Timestamp><Current dt:dt="r8">0</Current><DateUtc dt:dt="string">2022-12-19T08:16:39Z</DateUtc></FrequencyChange></FrequencyChanges></Clock>\n	Wisconsin-1173-2	59.957	1.0.0.548	1	-1003693031	Professional	2.0.10.356	2.0.10.356	12-19-2022	12/19/2022 8:16:39 AM	16:16:39	2.0.10.252	3				2	1	2	BlockProc2	List3	2																				1	1	2				ColorProc2	List4									6	BUTTON1.png	BUTTON2.PNG	BUTTON3.png	BUTTON4.png	Redcircle2.png				7	1	6	c	0							0	TrialProc	ColorList2							1	c	0	1	323267	0	c	833	color
Wisconsin	1173	2	<?xml version="1.0"?>\n<Clock xmlns:dt="urn:schemas-microsoft-com:datatypes"><Description dt:dt="string">E-Prime Primary Realtime Clock</Description><StartTime><Timestamp dt:dt="int">0</Timestamp><DateUtc dt:dt="string">2022-12-19T08:16:39Z</DateUtc></StartTime><FrequencyChanges><FrequencyChange><Frequency dt:dt="r8">2929853</Frequency><Timestamp dt:dt="r8">54830326864</Timestamp><Current dt:dt="r8">0</Current><DateUtc dt:dt="string">2022-12-19T08:16:39Z</DateUtc></FrequencyChange></FrequencyChanges></Clock>\n	Wisconsin-1173-2	59.957	1.0.0.548	1	-1003693031	Professional	2.0.10.356	2.0.10.356	12-19-2022	12/19/2022 8:16:39 AM	16:16:39	2.0.10.252	3				2	1	2	BlockProc2	List3	2																				1	1	2				ColorProc2	List4									7	BUTTON1.png	BUTTON2.PNG	BUTTON3.png	BUTTON4.png	bluecross1.png				1	1	7	v	0							0	TrialProc	ColorList2							1	v	0	1	326636	0	v	616	color
Wisconsin	1173	2	<?xml version="1.0"?>\n<Clock xmlns:dt="urn:schemas-microsoft-com:datatypes"><Description dt:dt="string">E-Prime Primary Realtime Clock</Description><StartTime><Timestamp dt:dt="int">0</Timestamp><DateUtc dt:dt="string">2022-12-19T08:16:39Z</DateUtc></StartTime><FrequencyChanges><FrequencyChange><Frequency dt:dt="r8">2929853</Frequency><Timestamp dt:dt="r8">54830326864</Timestamp><Current dt:dt="r8">0</Current><DateUtc dt:dt="string">2022-12-19T08:16:39Z</DateUtc></FrequencyChange></FrequencyChanges></Clock>\n	Wisconsin-1173-2	59.957	1.0.0.548	1	-1003693031	Professional	2.0.10.356	2.0.10.356	12-19-2022	12/19/2022 8:16:39 AM	16:16:39	2.0.10.252	3				2	1	2	BlockProc2	List3	2																				1	1	2				ColorProc2	List4									8	BUTTON1.png	BUTTON2.PNG	BUTTON3.png	BUTTON4.png	greentriangle2.png				6	1	8	z	1							0	TrialProc	ColorList2							0	z	0	1	329788	0	x	871	color
Wisconsin	1173	2	<?xml version="1.0"?>\n<Clock xmlns:dt="urn:schemas-microsoft-com:datatypes"><Description dt:dt="string">E-Prime Primary Realtime Clock</Description><StartTime><Timestamp dt:dt="int">0</Timestamp><DateUtc dt:dt="string">2022-12-19T08:16:39Z</DateUtc></StartTime><FrequencyChanges><FrequencyChange><Frequency dt:dt="r8">2929853</Frequency><Timestamp dt:dt="r8">54830326864</Timestamp><Current dt:dt="r8">0</Current><DateUtc dt:dt="string">2022-12-19T08:16:39Z</DateUtc></FrequencyChange></FrequencyChanges></Clock>\n	Wisconsin-1173-2	59.957	1.0.0.548	1	-1003693031	Professional	2.0.10.356	2.0.10.356	12-19-2022	12/19/2022 8:16:39 AM	16:16:39	2.0.10.252	3				2	1	2	BlockProc2	List3	2																				1	1	2				ColorProc2	List4									9	BUTTON1.png	BUTTON2.PNG	BUTTON3.png	BUTTON4.png	yellowcircle2.png				9	1	9	x	0							0	TrialProc	ColorList2							1	x	0	1	333191	0	x	732	color
Wisconsin	1173	2	<?xml version="1.0"?>\n<Clock xmlns:dt="urn:schemas-microsoft-com:datatypes"><Description dt:dt="string">E-Prime Primary Realtime Clock</Description><StartTime><Timestamp dt:dt="int">0</Timestamp><DateUtc dt:dt="string">2022-12-19T08:16:39Z</DateUtc></StartTime><FrequencyChanges><FrequencyChange><Frequency dt:dt="r8">2929853</Frequency><Timestamp dt:dt="r8">54830326864</Timestamp><Current dt:dt="r8">0</Current><DateUtc dt:dt="string">2022-12-19T08:16:39Z</DateUtc></FrequencyChange></FrequencyChanges></Clock>\n	Wisconsin-1173-2	59.957	1.0.0.548	1	-1003693031	Professional	2.0.10.356	2.0.10.356	12-19-2022	12/19/2022 8:16:39 AM	16:16:39	2.0.10.252	3				2	1	2	BlockProc2	List3	2																				1	1	2				ColorProc2	List4									10	BUTTON1.png	BUTTON2.PNG	BUTTON3.png	BUTTON4.png	greenstar4.png				5	1	10	z	1							0	TrialProc	ColorList2							0	z	0	1	336460	0	x	727	color
Wisconsin	1173	2	<?xml version="1.0"?>\n<Clock xmlns:dt="urn:schemas-microsoft-com:datatypes"><Description dt:dt="string">E-Prime Primary Realtime Clock</Description><StartTime><Timestamp dt:dt="int">0</Timestamp><DateUtc dt:dt="string">2022-12-19T08:16:39Z</DateUtc></StartTime><FrequencyChanges><FrequencyChange><Frequency dt:dt="r8">2929853</Frequency><Timestamp dt:dt="r8">54830326864</Timestamp><Current dt:dt="r8">0</Current><DateUtc dt:dt="string">2022-12-19T08:16:39Z</DateUtc></FrequencyChange></FrequencyChanges></Clock>\n	Wisconsin-1173-2	59.957	1.0.0.548	1	-1003693031	Professional	2.0.10.356	2.0.10.356	12-19-2022	12/19/2022 8:16:39 AM	16:16:39	2.0.10.252	3				2	1	2	BlockProc2	List3	3																				2	1	3				NumberProc2	List4									1	Button1.png	Button2.png	Button3.png	Button4.png	Bluetriangle4.png							x	1				3	1	1	0	TrialProc	NumberList1							0	x	0	1	339729	0	v	802	number
Wisconsin	1173	2	<?xml version="1.0"?>\n<Clock xmlns:dt="urn:schemas-microsoft-com:datatypes"><Description dt:dt="string">E-Prime Primary Realtime Clock</Description><StartTime><Timestamp dt:dt="int">0</Timestamp><DateUtc dt:dt="string">2022-12-19T08:16:39Z</DateUtc></StartTime><FrequencyChanges><FrequencyChange><Frequency dt:dt="r8">2929853</Frequency><Timestamp dt:dt="r8">54830326864</Timestamp><Current dt:dt="r8">0</Current><DateUtc dt:dt="string">2022-12-19T08:16:39Z</DateUtc></FrequencyChange></FrequencyChanges></Clock>\n	Wisconsin-1173-2	59.957	1.0.0.548	1	-1003693031	Professional	2.0.10.356	2.0.10.356	12-19-2022	12/19/2022 8:16:39 AM	16:16:39	2.0.10.252	3				2	1	2	BlockProc2	List3	3																				2	1	3				NumberProc2	List4									2	Button1.png	Button2.png	Button3.png	Button4.png	Bluestar4.png							x	1				2	1	2	0	TrialProc	NumberList1							0	x	0	0	343064	0	v	1035	number
Wisconsin	1173	2	<?xml version="1.0"?>\n<Clock xmlns:dt="urn:schemas-microsoft-com:datatypes"><Description dt:dt="string">E-Prime Primary Realtime Clock</Description><StartTime><Timestamp dt:dt="int">0</Timestamp><DateUtc dt:dt="string">2022-12-19T08:16:39Z</DateUtc></StartTime><FrequencyChanges><FrequencyChange><Frequency dt:dt="r8">2929853</Frequency><Timestamp dt:dt="r8">54830326864</Timestamp><Current dt:dt="r8">0</Current><DateUtc dt:dt="string">2022-12-19T08:16:39Z</DateUtc></FrequencyChange></FrequencyChanges></Clock>\n	Wisconsin-1173-2	59.957	1.0.0.548	1	-1003693031	Professional	2.0.10.356	2.0.10.356	12-19-2022	12/19/2022 8:16:39 AM	16:16:39	2.0.10.252	3				2	1	2	BlockProc2	List3	3																				2	1	3				NumberProc2	List4									3	Button1.png	Button2.png	Button3.png	Button4.png	Bluecross3.png							c	0				1	1	3	0	TrialProc	NumberList1							1	c	0	1	346634	0	c	824	number
Wisconsin	1173	2	<?xml version="1.0"?>\n<Clock xmlns:dt="urn:schemas-microsoft-com:datatypes"><Description dt:dt="string">E-Prime Primary Realtime Clock</Description><StartTime><Timestamp dt:dt="int">0</Timestamp><DateUtc dt:dt="string">2022-12-19T08:16:39Z</DateUtc></StartTime><FrequencyChanges><FrequencyChange><Frequency dt:dt="r8">2929853</Frequency><Timestamp dt:dt="r8">54830326864</Timestamp><Current dt:dt="r8">0</Current><DateUtc dt:dt="string">2022-12-19T08:16:39Z</DateUtc></FrequencyChange></FrequencyChanges></Clock>\n	Wisconsin-1173-2	59.957	1.0.0.548	1	-1003693031	Professional	2.0.10.356	2.0.10.356	12-19-2022	12/19/2022 8:16:39 AM	16:16:39	2.0.10.252	3				2	1	2	BlockProc2	List3	3																				2	1	3				NumberProc2	List4									4	Button1.png	Button2.png	Button3.png	Button4.png	Redstar1.png							v	1				6	1	4	0	TrialProc	NumberList1							0	v	0	1	349986	0	c	832	number
Wisconsin	1173	2	<?xml version="1.0"?>\n<Clock xmlns:dt="urn:schemas-microsoft-com:datatypes"><Description dt:dt="string">E-Prime Primary Realtime Clock</Description><StartTime><Timestamp dt:dt="int">0</Timestamp><DateUtc dt:dt="string">2022-12-19T08:16:39Z</DateUtc></StartTime><FrequencyChanges><FrequencyChange><Frequency dt:dt="r8">2929853</Frequency><Timestamp dt:dt="r8">54830326864</Timestamp><Current dt:dt="r8">0</Current><DateUtc dt:dt="string">2022-12-19T08:16:39Z</DateUtc></FrequencyChange></FrequencyChanges></Clock>\n	Wisconsin-1173-2	59.957	1.0.0.548	1	-1003693031	Professional	2.0.10.356	2.0.10.356	12-19-2022	12/19/2022 8:16:39 AM	16:16:39	2.0.10.252	3				2	1	2	BlockProc2	List3	3																				2	1	3				NumberProc2	List4									5	Button1.png	Button2.png	Button3.png	Button4.png	Redtriangle2.png							z	1				7	1	5	0	TrialProc	NumberList1							0	z	0	0	353355	0	c	727	number
Wisconsin	1173	2	<?xml version="1.0"?>\n<Clock xmlns:dt="urn:schemas-microsoft-com:datatypes"><Description dt:dt="string">E-Prime Primary Realtime Clock</Description><StartTime><Timestamp dt:dt="int">0</Timestamp><DateUtc dt:dt="string">2022-12-19T08:16:39Z</DateUtc></StartTime><FrequencyChanges><FrequencyChange><Frequency dt:dt="r8">2929853</Frequency><Timestamp dt:dt="r8">54830326864</Timestamp><Current dt:dt="r8">0</Current><DateUtc dt:dt="string">2022-12-19T08:16:39Z</DateUtc></FrequencyChange></FrequencyChanges></Clock>\n	Wisconsin-1173-2	59.957	1.0.0.548	1	-1003693031	Professional	2.0.10.356	2.0.10.356	12-19-2022	12/19/2022 8:16:39 AM	16:16:39	2.0.10.252	3				2	1	2	BlockProc2	List3	3																				2	1	3				NumberProc2	List4									6	Button1.png	Button2.png	Button3.png	Button4.png	Greenstar1.png							v	0				5	1	6	0	TrialProc	NumberList1							1	v	0	0	356624	0	v	1202	number
Wisconsin	1173	2	<?xml version="1.0"?>\n<Clock xmlns:dt="urn:schemas-microsoft-com:datatypes"><Description dt:dt="string">E-Prime Primary Realtime Clock</Description><StartTime><Timestamp dt:dt="int">0</Timestamp><DateUtc dt:dt="string">2022-12-19T08:16:39Z</DateUtc></StartTime><FrequencyChanges><FrequencyChange><Frequency dt:dt="r8">2929853</Frequency><Timestamp dt:dt="r8">54830326864</Timestamp><Current dt:dt="r8">0</Current><DateUtc dt:dt="string">2022-12-19T08:16:39Z</DateUtc></FrequencyChange></FrequencyChanges></Clock>\n	Wisconsin-1173-2	59.957	1.0.0.548	1	-1003693031	Professional	2.0.10.356	2.0.10.356	12-19-2022	12/19/2022 8:16:39 AM	16:16:39	2.0.10.252	3				2	1	2	BlockProc2	List3	3																				2	1	3				NumberProc2	List4									7	Button1.png	Button2.png	Button3.png	Button4.png	yellowcircle4.png							x	0				8	1	7	0	TrialProc	NumberList1							1	x	0	1	360377	0	x	713	number
Wisconsin	1173	2	<?xml version="1.0"?>\n<Clock xmlns:dt="urn:schemas-microsoft-com:datatypes"><Description dt:dt="string">E-Prime Primary Realtime Clock</Description><StartTime><Timestamp dt:dt="int">0</Timestamp><DateUtc dt:dt="string">2022-12-19T08:16:39Z</DateUtc></StartTime><FrequencyChanges><FrequencyChange><Frequency dt:dt="r8">2929853</Frequency><Timestamp dt:dt="r8">54830326864</Timestamp><Current dt:dt="r8">0</Current><DateUtc dt:dt="string">2022-12-19T08:16:39Z</DateUtc></FrequencyChange></FrequencyChanges></Clock>\n	Wisconsin-1173-2	59.957	1.0.0.548	1	-1003693031	Professional	2.0.10.356	2.0.10.356	12-19-2022	12/19/2022 8:16:39 AM	16:16:39	2.0.10.252	3				2	1	2	BlockProc2	List3	3																				2	1	3				NumberProc2	List4									8	Button1.png	Button2.png	Button3.png	Button4.png	Yellowcross2.png							z	1				9	1	8	0	TrialProc	NumberList1							0	z	0	0	363629	0	x	804	number
Wisconsin	1173	2	<?xml version="1.0"?>\n<Clock xmlns:dt="urn:schemas-microsoft-com:datatypes"><Description dt:dt="string">E-Prime Primary Realtime Clock</Description><StartTime><Timestamp dt:dt="int">0</Timestamp><DateUtc dt:dt="string">2022-12-19T08:16:39Z</DateUtc></StartTime><FrequencyChanges><FrequencyChange><Frequency dt:dt="r8">2929853</Frequency><Timestamp dt:dt="r8">54830326864</Timestamp><Current dt:dt="r8">0</Current><DateUtc dt:dt="string">2022-12-19T08:16:39Z</DateUtc></FrequencyChange></FrequencyChanges></Clock>\n	Wisconsin-1173-2	59.957	1.0.0.548	1	-1003693031	Professional	2.0.10.356	2.0.10.356	12-19-2022	12/19/2022 8:16:39 AM	16:16:39	2.0.10.252	3				2	1	2	BlockProc2	List3	3																				2	1	3				NumberProc2	List4									9	Button1.png	Button2.png	Button3.png	Button4.png	Greencross2.png							z	0				4	1	9	0	TrialProc	NumberList1							1	z	0	1	366965	0	z	828	number
Wisconsin	1173	2	<?xml version="1.0"?>\n<Clock xmlns:dt="urn:schemas-microsoft-com:datatypes"><Description dt:dt="string">E-Prime Primary Realtime Clock</Description><StartTime><Timestamp dt:dt="int">0</Timestamp><DateUtc dt:dt="string">2022-12-19T08:16:39Z</DateUtc></StartTime><FrequencyChanges><FrequencyChange><Frequency dt:dt="r8">2929853</Frequency><Timestamp dt:dt="r8">54830326864</Timestamp><Current dt:dt="r8">0</Current><DateUtc dt:dt="string">2022-12-19T08:16:39Z</DateUtc></FrequencyChange></FrequencyChanges></Clock>\n	Wisconsin-1173-2	59.957	1.0.0.548	1	-1003693031	Professional	2.0.10.356	2.0.10.356	12-19-2022	12/19/2022 8:16:39 AM	16:16:39	2.0.10.252	3				2	1	2	BlockProc2	List3	3																				2	1	3				NumberProc2	List4									10	Button1.png	Button2.png	Button3.png	Button4.png	Yellowtriangle2.png							z	1				10	1	10	0	TrialProc	NumberList1							0	z	0	1	370334	0	x	659	number
