ExperimentName	Subject	Session	Clock.Information	DataFile.Basename	Display.RefreshRate	ExperimentVersion	Group	RandomSeed	RuntimeCapabilities	RuntimeVersion	RuntimeVersionExpected	SessionDate	SessionStartDateTimeUtc	SessionTime	StudioVersion	Block	List1	List1.Cycle	List1.Sample	List3	List3.Cycle	List3.Sample	Procedure[Block]	Running[Block]	Trial	CardIMG1[Trial]	CardIMG2[Trial]	CardIMG3[Trial]	CardIMG4[Trial]	CardStim[Trial]	Category	CorrectAnswer[Trial]	FeedbackDisplay2.ACC	FeedbackDisplay2.CRESP	FeedbackDisplay2.DurationError	FeedbackDisplay2.OnsetDelay	FeedbackDisplay2.OnsetTime	FeedbackDisplay2.OnsetToOnsetTime	FeedbackDisplay2.RESP	FeedbackDisplay2.RT	FeedbackDisplay2.RTTime	List2	List2.Cycle	List2.Sample	List4	List4.Cycle	List4.Sample	PracticeList	PracticeList.Cycle	PracticeList.Sample	Procedure[Trial]	Running[Trial]	Slide5.ACC	Slide5.CRESP	Slide5.DurationError	Slide5.OnsetDelay	Slide5.OnsetTime	Slide5.OnsetToOnsetTime	Slide5.RESP	Slide5.RT	SubTrial	CardIMG1[SubTrial]	CardIMG2[SubTrial]	CardIMG3[SubTrial]	CardIMG4[SubTrial]	CardStim[SubTrial]	ColorList	ColorList.Cycle	ColorList.Sample	ColorList2	ColorList2.Cycle	ColorList2.Sample	CorrectAnswer[SubTrial]	NonPerseverativeError	NumberList	NumberList.Cycle	NumberList.Sample	NumberList1	NumberList1.Cycle	NumberList1.Sample	PerseverativeError	Procedure[SubTrial]	Running[SubTrial]	ShapeList	ShapeList.Cycle	ShapeList.Sample	ShapeList1	ShapeList1.Cycle	ShapeList1.Sample	Stimulus.ACC	Stimulus.CRESP	Stimulus.DurationError	Stimulus.OnsetDelay	Stimulus.OnsetTime	Stimulus.OnsetToOnsetTime	Stimulus.RESP	Stimulus.RT	TrialType
Wisconsin	1171	1	<?xml version="1.0"?>\n<Clock xmlns:dt="urn:schemas-microsoft-com:datatypes"><Description dt:dt="string">E-Prime Primary Realtime Clock</Description><StartTime><Timestamp dt:dt="int">0</Timestamp><DateUtc dt:dt="string">2022-11-12T07:15:46Z</DateUtc></StartTime><FrequencyChanges><FrequencyChange><Frequency dt:dt="r8">2929873</Frequency><Timestamp dt:dt="r8">57343128828</Timestamp><Current dt:dt="r8">0</Current><DateUtc dt:dt="string">2022-11-12T07:15:46Z</DateUtc></FrequencyChange></FrequencyChanges></Clock>\n	Wisconsin-1171-1	59.957	1.0.0.531	1	1509108522	Professional	2.0.10.356	2.0.10.356	11-12-2022	11/12/2022 7:15:46 AM	15:15:46	2.0.10.252	1	1	1	1				Practicebloc	List1	1	Button1.png	Button2.png	Button3.png	Button4.png	Greencircle3.png	顏色	z	0		0	16	60740	0		0	0							1	1	1	PracticeTrialProc	PracticeList	1	z	0	1	59772	0	z	950																																						
Wisconsin	1171	1	<?xml version="1.0"?>\n<Clock xmlns:dt="urn:schemas-microsoft-com:datatypes"><Description dt:dt="string">E-Prime Primary Realtime Clock</Description><StartTime><Timestamp dt:dt="int">0</Timestamp><DateUtc dt:dt="string">2022-11-12T07:15:46Z</DateUtc></StartTime><FrequencyChanges><FrequencyChange><Frequency dt:dt="r8">2929873</Frequency><Timestamp dt:dt="r8">57343128828</Timestamp><Current dt:dt="r8">0</Current><DateUtc dt:dt="string">2022-11-12T07:15:46Z</DateUtc></FrequencyChange></FrequencyChanges></Clock>\n	Wisconsin-1171-1	59.957	1.0.0.531	1	1509108522	Professional	2.0.10.356	2.0.10.356	11-12-2022	11/12/2022 7:15:46 AM	15:15:46	2.0.10.252	1	1	1	1				Practicebloc	List1	2	Button1.png	Button2.png	Button3.png	Button4.png	Redstar2.png	顏色	c	0		0	11	65726	0		0	0							2	1	2	PracticeTrialProc	PracticeList	1	c	0	0	63291	0	c	2422																																						
Wisconsin	1171	1	<?xml version="1.0"?>\n<Clock xmlns:dt="urn:schemas-microsoft-com:datatypes"><Description dt:dt="string">E-Prime Primary Realtime Clock</Description><StartTime><Timestamp dt:dt="int">0</Timestamp><DateUtc dt:dt="string">2022-11-12T07:15:46Z</DateUtc></StartTime><FrequencyChanges><FrequencyChange><Frequency dt:dt="r8">2929873</Frequency><Timestamp dt:dt="r8">57343128828</Timestamp><Current dt:dt="r8">0</Current><DateUtc dt:dt="string">2022-11-12T07:15:46Z</DateUtc></FrequencyChange></FrequencyChanges></Clock>\n	Wisconsin-1171-1	59.957	1.0.0.531	1	1509108522	Professional	2.0.10.356	2.0.10.356	11-12-2022	11/12/2022 7:15:46 AM	15:15:46	2.0.10.252	1	1	1	1				Practicebloc	List1	3	Button1.png	Button2.png	Button3.png	Button4.png	Bluetriangle1.png	形狀	x	0		0	17	69846	0		0	0							3	1	3	PracticeTrialProc	PracticeList	0	x	0	0	68278	0	v	1547																																						
Wisconsin	1171	1	<?xml version="1.0"?>\n<Clock xmlns:dt="urn:schemas-microsoft-com:datatypes"><Description dt:dt="string">E-Prime Primary Realtime Clock</Description><StartTime><Timestamp dt:dt="int">0</Timestamp><DateUtc dt:dt="string">2022-11-12T07:15:46Z</DateUtc></StartTime><FrequencyChanges><FrequencyChange><Frequency dt:dt="r8">2929873</Frequency><Timestamp dt:dt="r8">57343128828</Timestamp><Current dt:dt="r8">0</Current><DateUtc dt:dt="string">2022-11-12T07:15:46Z</DateUtc></FrequencyChange></FrequencyChanges></Clock>\n	Wisconsin-1171-1	59.957	1.0.0.531	1	1509108522	Professional	2.0.10.356	2.0.10.356	11-12-2022	11/12/2022 7:15:46 AM	15:15:46	2.0.10.252	1	1	1	1				Practicebloc	List1	4	Button1.png	Button2.png	Button3.png	Button4.png	greenstar2.png	形狀	v	0		0	26	75150	0		0	0							4	1	4	PracticeTrialProc	PracticeList	1	v	0	1	72398	0	v	2723																																						
Wisconsin	1171	1	<?xml version="1.0"?>\n<Clock xmlns:dt="urn:schemas-microsoft-com:datatypes"><Description dt:dt="string">E-Prime Primary Realtime Clock</Description><StartTime><Timestamp dt:dt="int">0</Timestamp><DateUtc dt:dt="string">2022-11-12T07:15:46Z</DateUtc></StartTime><FrequencyChanges><FrequencyChange><Frequency dt:dt="r8">2929873</Frequency><Timestamp dt:dt="r8">57343128828</Timestamp><Current dt:dt="r8">0</Current><DateUtc dt:dt="string">2022-11-12T07:15:46Z</DateUtc></FrequencyChange></FrequencyChanges></Clock>\n	Wisconsin-1171-1	59.957	1.0.0.531	1	1509108522	Professional	2.0.10.356	2.0.10.356	11-12-2022	11/12/2022 7:15:46 AM	15:15:46	2.0.10.252	1	1	1	1				Practicebloc	List1	5	Button1.png	Button2.png	Button3.png	Button4.png	BlueCross4.png	數目	x	0		0	13	82305	0		0	0							5	1	5	PracticeTrialProc	PracticeList	0	x	0	1	77702	0	v	4586																																						
Wisconsin	1171	1	<?xml version="1.0"?>\n<Clock xmlns:dt="urn:schemas-microsoft-com:datatypes"><Description dt:dt="string">E-Prime Primary Realtime Clock</Description><StartTime><Timestamp dt:dt="int">0</Timestamp><DateUtc dt:dt="string">2022-11-12T07:15:46Z</DateUtc></StartTime><FrequencyChanges><FrequencyChange><Frequency dt:dt="r8">2929873</Frequency><Timestamp dt:dt="r8">57343128828</Timestamp><Current dt:dt="r8">0</Current><DateUtc dt:dt="string">2022-11-12T07:15:46Z</DateUtc></FrequencyChange></FrequencyChanges></Clock>\n	Wisconsin-1171-1	59.957	1.0.0.531	1	1509108522	Professional	2.0.10.356	2.0.10.356	11-12-2022	11/12/2022 7:15:46 AM	15:15:46	2.0.10.252	1	1	1	1				Practicebloc	List1	6	Button1.png	Button2.png	Button3.png	Button4.png	yellowcircle2.png	數目	z	0		0	16	86692	0		0	0							6	1	6	PracticeTrialProc	PracticeList	1	z	0	1	84857	0	z	1815																																						
Wisconsin	1171	1	<?xml version="1.0"?>\n<Clock xmlns:dt="urn:schemas-microsoft-com:datatypes"><Description dt:dt="string">E-Prime Primary Realtime Clock</Description><StartTime><Timestamp dt:dt="int">0</Timestamp><DateUtc dt:dt="string">2022-11-12T07:15:46Z</DateUtc></StartTime><FrequencyChanges><FrequencyChange><Frequency dt:dt="r8">2929873</Frequency><Timestamp dt:dt="r8">57343128828</Timestamp><Current dt:dt="r8">0</Current><DateUtc dt:dt="string">2022-11-12T07:15:46Z</DateUtc></FrequencyChange></FrequencyChanges></Clock>\n	Wisconsin-1171-1	59.957	1.0.0.531	1	1509108522	Professional	2.0.10.356	2.0.10.356	11-12-2022	11/12/2022 7:15:46 AM	15:15:46	2.0.10.252	2				1	1	1	BlockProc	List3	1																	1	1	1							ColorProc	List2									1	BUTTON1.png	BUTTON2.PNG	BUTTON3.png	BUTTON4.png	greenstar2.png	5	1	1				z	1							0	TrialProc	ColorList							0	z	0	0	140580	0	v	2057	color
Wisconsin	1171	1	<?xml version="1.0"?>\n<Clock xmlns:dt="urn:schemas-microsoft-com:datatypes"><Description dt:dt="string">E-Prime Primary Realtime Clock</Description><StartTime><Timestamp dt:dt="int">0</Timestamp><DateUtc dt:dt="string">2022-11-12T07:15:46Z</DateUtc></StartTime><FrequencyChanges><FrequencyChange><Frequency dt:dt="r8">2929873</Frequency><Timestamp dt:dt="r8">57343128828</Timestamp><Current dt:dt="r8">0</Current><DateUtc dt:dt="string">2022-11-12T07:15:46Z</DateUtc></FrequencyChange></FrequencyChanges></Clock>\n	Wisconsin-1171-1	59.957	1.0.0.531	1	1509108522	Professional	2.0.10.356	2.0.10.356	11-12-2022	11/12/2022 7:15:46 AM	15:15:46	2.0.10.252	2				1	1	1	BlockProc	List3	1																	1	1	1							ColorProc	List2									2	BUTTON1.png	BUTTON2.PNG	BUTTON3.png	BUTTON4.png	greentriangle1.png	6	1	2				z	1							0	TrialProc	ColorList							0	z	0	1	145184	0	x	2556	color
Wisconsin	1171	1	<?xml version="1.0"?>\n<Clock xmlns:dt="urn:schemas-microsoft-com:datatypes"><Description dt:dt="string">E-Prime Primary Realtime Clock</Description><StartTime><Timestamp dt:dt="int">0</Timestamp><DateUtc dt:dt="string">2022-11-12T07:15:46Z</DateUtc></StartTime><FrequencyChanges><FrequencyChange><Frequency dt:dt="r8">2929873</Frequency><Timestamp dt:dt="r8">57343128828</Timestamp><Current dt:dt="r8">0</Current><DateUtc dt:dt="string">2022-11-12T07:15:46Z</DateUtc></FrequencyChange></FrequencyChanges></Clock>\n	Wisconsin-1171-1	59.957	1.0.0.531	1	1509108522	Professional	2.0.10.356	2.0.10.356	11-12-2022	11/12/2022 7:15:46 AM	15:15:46	2.0.10.252	2				1	1	1	BlockProc	List3	1																	1	1	1							ColorProc	List2									3	BUTTON1.png	BUTTON2.PNG	BUTTON3.png	BUTTON4.png	bluecross2.png	2	1	3				v	1							0	TrialProc	ColorList							0	v	0	1	150271	0	c	3149	color
Wisconsin	1171	1	<?xml version="1.0"?>\n<Clock xmlns:dt="urn:schemas-microsoft-com:datatypes"><Description dt:dt="string">E-Prime Primary Realtime Clock</Description><StartTime><Timestamp dt:dt="int">0</Timestamp><DateUtc dt:dt="string">2022-11-12T07:15:46Z</DateUtc></StartTime><FrequencyChanges><FrequencyChange><Frequency dt:dt="r8">2929873</Frequency><Timestamp dt:dt="r8">57343128828</Timestamp><Current dt:dt="r8">0</Current><DateUtc dt:dt="string">2022-11-12T07:15:46Z</DateUtc></FrequencyChange></FrequencyChanges></Clock>\n	Wisconsin-1171-1	59.957	1.0.0.531	1	1509108522	Professional	2.0.10.356	2.0.10.356	11-12-2022	11/12/2022 7:15:46 AM	15:15:46	2.0.10.252	2				1	1	1	BlockProc	List3	1																	1	1	1							ColorProc	List2									4	BUTTON1.png	BUTTON2.PNG	BUTTON3.png	BUTTON4.png	greencircle3.png	4	1	4				z	0							0	TrialProc	ColorList							1	z	0	1	155958	0	z	790	color
Wisconsin	1171	1	<?xml version="1.0"?>\n<Clock xmlns:dt="urn:schemas-microsoft-com:datatypes"><Description dt:dt="string">E-Prime Primary Realtime Clock</Description><StartTime><Timestamp dt:dt="int">0</Timestamp><DateUtc dt:dt="string">2022-11-12T07:15:46Z</DateUtc></StartTime><FrequencyChanges><FrequencyChange><Frequency dt:dt="r8">2929873</Frequency><Timestamp dt:dt="r8">57343128828</Timestamp><Current dt:dt="r8">0</Current><DateUtc dt:dt="string">2022-11-12T07:15:46Z</DateUtc></FrequencyChange></FrequencyChanges></Clock>\n	Wisconsin-1171-1	59.957	1.0.0.531	1	1509108522	Professional	2.0.10.356	2.0.10.356	11-12-2022	11/12/2022 7:15:46 AM	15:15:46	2.0.10.252	2				1	1	1	BlockProc	List3	1																	1	1	1							ColorProc	List2									5	BUTTON1.png	BUTTON2.PNG	BUTTON3.png	BUTTON4.png	bluecircle1.png	1	1	5				v	1							0	TrialProc	ColorList							0	v	0	1	159277	0	z	1486	color
Wisconsin	1171	1	<?xml version="1.0"?>\n<Clock xmlns:dt="urn:schemas-microsoft-com:datatypes"><Description dt:dt="string">E-Prime Primary Realtime Clock</Description><StartTime><Timestamp dt:dt="int">0</Timestamp><DateUtc dt:dt="string">2022-11-12T07:15:46Z</DateUtc></StartTime><FrequencyChanges><FrequencyChange><Frequency dt:dt="r8">2929873</Frequency><Timestamp dt:dt="r8">57343128828</Timestamp><Current dt:dt="r8">0</Current><DateUtc dt:dt="string">2022-11-12T07:15:46Z</DateUtc></FrequencyChange></FrequencyChanges></Clock>\n	Wisconsin-1171-1	59.957	1.0.0.531	1	1509108522	Professional	2.0.10.356	2.0.10.356	11-12-2022	11/12/2022 7:15:46 AM	15:15:46	2.0.10.252	2				1	1	1	BlockProc	List3	1																	1	1	1							ColorProc	List2									6	BUTTON1.png	BUTTON2.PNG	BUTTON3.png	BUTTON4.png	greentriangle3.png	7	1	6				z	1							0	TrialProc	ColorList							0	z	0	1	163297	0	x	1738	color
Wisconsin	1171	1	<?xml version="1.0"?>\n<Clock xmlns:dt="urn:schemas-microsoft-com:datatypes"><Description dt:dt="string">E-Prime Primary Realtime Clock</Description><StartTime><Timestamp dt:dt="int">0</Timestamp><DateUtc dt:dt="string">2022-11-12T07:15:46Z</DateUtc></StartTime><FrequencyChanges><FrequencyChange><Frequency dt:dt="r8">2929873</Frequency><Timestamp dt:dt="r8">57343128828</Timestamp><Current dt:dt="r8">0</Current><DateUtc dt:dt="string">2022-11-12T07:15:46Z</DateUtc></FrequencyChange></FrequencyChanges></Clock>\n	Wisconsin-1171-1	59.957	1.0.0.531	1	1509108522	Professional	2.0.10.356	2.0.10.356	11-12-2022	11/12/2022 7:15:46 AM	15:15:46	2.0.10.252	2				1	1	1	BlockProc	List3	1																	1	1	1							ColorProc	List2									7	BUTTON1.png	BUTTON2.PNG	BUTTON3.png	BUTTON4.png	redcircle3.png	8	1	7				c	1							0	TrialProc	ColorList							0	c	1	0	167566	0	z	1565	color
Wisconsin	1171	1	<?xml version="1.0"?>\n<Clock xmlns:dt="urn:schemas-microsoft-com:datatypes"><Description dt:dt="string">E-Prime Primary Realtime Clock</Description><StartTime><Timestamp dt:dt="int">0</Timestamp><DateUtc dt:dt="string">2022-11-12T07:15:46Z</DateUtc></StartTime><FrequencyChanges><FrequencyChange><Frequency dt:dt="r8">2929873</Frequency><Timestamp dt:dt="r8">57343128828</Timestamp><Current dt:dt="r8">0</Current><DateUtc dt:dt="string">2022-11-12T07:15:46Z</DateUtc></FrequencyChange></FrequencyChanges></Clock>\n	Wisconsin-1171-1	59.957	1.0.0.531	1	1509108522	Professional	2.0.10.356	2.0.10.356	11-12-2022	11/12/2022 7:15:46 AM	15:15:46	2.0.10.252	2				1	1	1	BlockProc	List3	1																	1	1	1							ColorProc	List2									8	BUTTON1.png	BUTTON2.PNG	BUTTON3.png	BUTTON4.png	yellowcircle1.png	9	1	8				x	1							0	TrialProc	ColorList							0	x	0	0	171669	0	z	1126	color
Wisconsin	1171	1	<?xml version="1.0"?>\n<Clock xmlns:dt="urn:schemas-microsoft-com:datatypes"><Description dt:dt="string">E-Prime Primary Realtime Clock</Description><StartTime><Timestamp dt:dt="int">0</Timestamp><DateUtc dt:dt="string">2022-11-12T07:15:46Z</DateUtc></StartTime><FrequencyChanges><FrequencyChange><Frequency dt:dt="r8">2929873</Frequency><Timestamp dt:dt="r8">57343128828</Timestamp><Current dt:dt="r8">0</Current><DateUtc dt:dt="string">2022-11-12T07:15:46Z</DateUtc></FrequencyChange></FrequencyChanges></Clock>\n	Wisconsin-1171-1	59.957	1.0.0.531	1	1509108522	Professional	2.0.10.356	2.0.10.356	11-12-2022	11/12/2022 7:15:46 AM	15:15:46	2.0.10.252	2				1	1	1	BlockProc	List3	1																	1	1	1							ColorProc	List2									9	BUTTON1.png	BUTTON2.PNG	BUTTON3.png	BUTTON4.png	yellowstar3.png	10	1	9				x	1							0	TrialProc	ColorList							0	x	0	1	175322	0	v	1600	color
Wisconsin	1171	1	<?xml version="1.0"?>\n<Clock xmlns:dt="urn:schemas-microsoft-com:datatypes"><Description dt:dt="string">E-Prime Primary Realtime Clock</Description><StartTime><Timestamp dt:dt="int">0</Timestamp><DateUtc dt:dt="string">2022-11-12T07:15:46Z</DateUtc></StartTime><FrequencyChanges><FrequencyChange><Frequency dt:dt="r8">2929873</Frequency><Timestamp dt:dt="r8">57343128828</Timestamp><Current dt:dt="r8">0</Current><DateUtc dt:dt="string">2022-11-12T07:15:46Z</DateUtc></FrequencyChange></FrequencyChanges></Clock>\n	Wisconsin-1171-1	59.957	1.0.0.531	1	1509108522	Professional	2.0.10.356	2.0.10.356	11-12-2022	11/12/2022 7:15:46 AM	15:15:46	2.0.10.252	2				1	1	1	BlockProc	List3	1																	1	1	1							ColorProc	List2									10	BUTTON1.png	BUTTON2.PNG	BUTTON3.png	BUTTON4.png	bluetriangle3.png	3	1	10				v	0							0	TrialProc	ColorList							1	v	0	0	179458	0	v	2104	color
Wisconsin	1171	1	<?xml version="1.0"?>\n<Clock xmlns:dt="urn:schemas-microsoft-com:datatypes"><Description dt:dt="string">E-Prime Primary Realtime Clock</Description><StartTime><Timestamp dt:dt="int">0</Timestamp><DateUtc dt:dt="string">2022-11-12T07:15:46Z</DateUtc></StartTime><FrequencyChanges><FrequencyChange><Frequency dt:dt="r8">2929873</Frequency><Timestamp dt:dt="r8">57343128828</Timestamp><Current dt:dt="r8">0</Current><DateUtc dt:dt="string">2022-11-12T07:15:46Z</DateUtc></FrequencyChange></FrequencyChanges></Clock>\n	Wisconsin-1171-1	59.957	1.0.0.531	1	1509108522	Professional	2.0.10.356	2.0.10.356	11-12-2022	11/12/2022 7:15:46 AM	15:15:46	2.0.10.252	2				1	1	1	BlockProc	List3	2																	2	1	2							NumberProc	List2									1	Button1.png	Button2.png	Button3.png	Button4.png	Redstar2.png							z	1	7	1	1				0	TrialProc	NumberList							0	z	0	1	184095	0	c	2011	number
Wisconsin	1171	1	<?xml version="1.0"?>\n<Clock xmlns:dt="urn:schemas-microsoft-com:datatypes"><Description dt:dt="string">E-Prime Primary Realtime Clock</Description><StartTime><Timestamp dt:dt="int">0</Timestamp><DateUtc dt:dt="string">2022-11-12T07:15:46Z</DateUtc></StartTime><FrequencyChanges><FrequencyChange><Frequency dt:dt="r8">2929873</Frequency><Timestamp dt:dt="r8">57343128828</Timestamp><Current dt:dt="r8">0</Current><DateUtc dt:dt="string">2022-11-12T07:15:46Z</DateUtc></FrequencyChange></FrequencyChanges></Clock>\n	Wisconsin-1171-1	59.957	1.0.0.531	1	1509108522	Professional	2.0.10.356	2.0.10.356	11-12-2022	11/12/2022 7:15:46 AM	15:15:46	2.0.10.252	2				1	1	1	BlockProc	List3	2																	2	1	2							NumberProc	List2									2	Button1.png	Button2.png	Button3.png	Button4.png	Yellowcross1.png							v	1	9	1	2				0	TrialProc	NumberList							0	v	0	0	188648	0	c	3409	number
Wisconsin	1171	1	<?xml version="1.0"?>\n<Clock xmlns:dt="urn:schemas-microsoft-com:datatypes"><Description dt:dt="string">E-Prime Primary Realtime Clock</Description><StartTime><Timestamp dt:dt="int">0</Timestamp><DateUtc dt:dt="string">2022-11-12T07:15:46Z</DateUtc></StartTime><FrequencyChanges><FrequencyChange><Frequency dt:dt="r8">2929873</Frequency><Timestamp dt:dt="r8">57343128828</Timestamp><Current dt:dt="r8">0</Current><DateUtc dt:dt="string">2022-11-12T07:15:46Z</DateUtc></FrequencyChange></FrequencyChanges></Clock>\n	Wisconsin-1171-1	59.957	1.0.0.531	1	1509108522	Professional	2.0.10.356	2.0.10.356	11-12-2022	11/12/2022 7:15:46 AM	15:15:46	2.0.10.252	2				1	1	1	BlockProc	List3	2																	2	1	2							NumberProc	List2									3	Button1.png	Button2.png	Button3.png	Button4.png	Bluecircle4.png							x	1	1	1	3				0	TrialProc	NumberList							0	x	0	1	194586	0	v	3151	number
Wisconsin	1171	1	<?xml version="1.0"?>\n<Clock xmlns:dt="urn:schemas-microsoft-com:datatypes"><Description dt:dt="string">E-Prime Primary Realtime Clock</Description><StartTime><Timestamp dt:dt="int">0</Timestamp><DateUtc dt:dt="string">2022-11-12T07:15:46Z</DateUtc></StartTime><FrequencyChanges><FrequencyChange><Frequency dt:dt="r8">2929873</Frequency><Timestamp dt:dt="r8">57343128828</Timestamp><Current dt:dt="r8">0</Current><DateUtc dt:dt="string">2022-11-12T07:15:46Z</DateUtc></FrequencyChange></FrequencyChanges></Clock>\n	Wisconsin-1171-1	59.957	1.0.0.531	1	1509108522	Professional	2.0.10.356	2.0.10.356	11-12-2022	11/12/2022 7:15:46 AM	15:15:46	2.0.10.252	2				1	1	1	BlockProc	List3	2																	2	1	2							NumberProc	List2									4	Button1.png	Button2.png	Button3.png	Button4.png	Greencircle4.png							x	1	4	1	4				0	TrialProc	NumberList							0	x	0	0	200273	0	z	712	number
Wisconsin	1171	1	<?xml version="1.0"?>\n<Clock xmlns:dt="urn:schemas-microsoft-com:datatypes"><Description dt:dt="string">E-Prime Primary Realtime Clock</Description><StartTime><Timestamp dt:dt="int">0</Timestamp><DateUtc dt:dt="string">2022-11-12T07:15:46Z</DateUtc></StartTime><FrequencyChanges><FrequencyChange><Frequency dt:dt="r8">2929873</Frequency><Timestamp dt:dt="r8">57343128828</Timestamp><Current dt:dt="r8">0</Current><DateUtc dt:dt="string">2022-11-12T07:15:46Z</DateUtc></FrequencyChange></FrequencyChanges></Clock>\n	Wisconsin-1171-1	59.957	1.0.0.531	1	1509108522	Professional	2.0.10.356	2.0.10.356	11-12-2022	11/12/2022 7:15:46 AM	15:15:46	2.0.10.252	2				1	1	1	BlockProc	List3	2																	2	1	2							NumberProc	List2									5	Button1.png	Button2.png	Button3.png	Button4.png	Bluestar2.png							z	1	2	1	5				0	TrialProc	NumberList							0	z	0	1	203526	0	v	1091	number
Wisconsin	1171	1	<?xml version="1.0"?>\n<Clock xmlns:dt="urn:schemas-microsoft-com:datatypes"><Description dt:dt="string">E-Prime Primary Realtime Clock</Description><StartTime><Timestamp dt:dt="int">0</Timestamp><DateUtc dt:dt="string">2022-11-12T07:15:46Z</DateUtc></StartTime><FrequencyChanges><FrequencyChange><Frequency dt:dt="r8">2929873</Frequency><Timestamp dt:dt="r8">57343128828</Timestamp><Current dt:dt="r8">0</Current><DateUtc dt:dt="string">2022-11-12T07:15:46Z</DateUtc></FrequencyChange></FrequencyChanges></Clock>\n	Wisconsin-1171-1	59.957	1.0.0.531	1	1509108522	Professional	2.0.10.356	2.0.10.356	11-12-2022	11/12/2022 7:15:46 AM	15:15:46	2.0.10.252	2				1	1	1	BlockProc	List3	2																	2	1	2							NumberProc	List2									6	Button1.png	Button2.png	Button3.png	Button4.png	Yellowcross3.png							c	1	10	1	6				0	TrialProc	NumberList							0	c	0	1	207145	0	x	6639	number
Wisconsin	1171	1	<?xml version="1.0"?>\n<Clock xmlns:dt="urn:schemas-microsoft-com:datatypes"><Description dt:dt="string">E-Prime Primary Realtime Clock</Description><StartTime><Timestamp dt:dt="int">0</Timestamp><DateUtc dt:dt="string">2022-11-12T07:15:46Z</DateUtc></StartTime><FrequencyChanges><FrequencyChange><Frequency dt:dt="r8">2929873</Frequency><Timestamp dt:dt="r8">57343128828</Timestamp><Current dt:dt="r8">0</Current><DateUtc dt:dt="string">2022-11-12T07:15:46Z</DateUtc></FrequencyChange></FrequencyChanges></Clock>\n	Wisconsin-1171-1	59.957	1.0.0.531	1	1509108522	Professional	2.0.10.356	2.0.10.356	11-12-2022	11/12/2022 7:15:46 AM	15:15:46	2.0.10.252	2				1	1	1	BlockProc	List3	2																	2	1	2							NumberProc	List2									7	Button1.png	Button2.png	Button3.png	Button4.png	Greencross3.png							c	0	5	1	7				0	TrialProc	NumberList							1	c	0	1	216318	0	c	3370	number
Wisconsin	1171	1	<?xml version="1.0"?>\n<Clock xmlns:dt="urn:schemas-microsoft-com:datatypes"><Description dt:dt="string">E-Prime Primary Realtime Clock</Description><StartTime><Timestamp dt:dt="int">0</Timestamp><DateUtc dt:dt="string">2022-11-12T07:15:46Z</DateUtc></StartTime><FrequencyChanges><FrequencyChange><Frequency dt:dt="r8">2929873</Frequency><Timestamp dt:dt="r8">57343128828</Timestamp><Current dt:dt="r8">0</Current><DateUtc dt:dt="string">2022-11-12T07:15:46Z</DateUtc></FrequencyChange></FrequencyChanges></Clock>\n	Wisconsin-1171-1	59.957	1.0.0.531	1	1509108522	Professional	2.0.10.356	2.0.10.356	11-12-2022	11/12/2022 7:15:46 AM	15:15:46	2.0.10.252	2				1	1	1	BlockProc	List3	2																	2	1	2							NumberProc	List2									8	Button1.png	Button2.png	Button3.png	Button4.png	Redtriangle4.png							x	1	8	1	8				0	TrialProc	NumberList							0	x	1	0	222222	0	c	1865	number
Wisconsin	1171	1	<?xml version="1.0"?>\n<Clock xmlns:dt="urn:schemas-microsoft-com:datatypes"><Description dt:dt="string">E-Prime Primary Realtime Clock</Description><StartTime><Timestamp dt:dt="int">0</Timestamp><DateUtc dt:dt="string">2022-11-12T07:15:46Z</DateUtc></StartTime><FrequencyChanges><FrequencyChange><Frequency dt:dt="r8">2929873</Frequency><Timestamp dt:dt="r8">57343128828</Timestamp><Current dt:dt="r8">0</Current><DateUtc dt:dt="string">2022-11-12T07:15:46Z</DateUtc></FrequencyChange></FrequencyChanges></Clock>\n	Wisconsin-1171-1	59.957	1.0.0.531	1	1509108522	Professional	2.0.10.356	2.0.10.356	11-12-2022	11/12/2022 7:15:46 AM	15:15:46	2.0.10.252	2				1	1	1	BlockProc	List3	2																	2	1	2							NumberProc	List2									9	Button1.png	Button2.png	Button3.png	Button4.png	Redcircle4.png							x	1	6	1	9				0	TrialProc	NumberList							0	x	0	1	226626	0	c	3573	number
Wisconsin	1171	1	<?xml version="1.0"?>\n<Clock xmlns:dt="urn:schemas-microsoft-com:datatypes"><Description dt:dt="string">E-Prime Primary Realtime Clock</Description><StartTime><Timestamp dt:dt="int">0</Timestamp><DateUtc dt:dt="string">2022-11-12T07:15:46Z</DateUtc></StartTime><FrequencyChanges><FrequencyChange><Frequency dt:dt="r8">2929873</Frequency><Timestamp dt:dt="r8">57343128828</Timestamp><Current dt:dt="r8">0</Current><DateUtc dt:dt="string">2022-11-12T07:15:46Z</DateUtc></FrequencyChange></FrequencyChanges></Clock>\n	Wisconsin-1171-1	59.957	1.0.0.531	1	1509108522	Professional	2.0.10.356	2.0.10.356	11-12-2022	11/12/2022 7:15:46 AM	15:15:46	2.0.10.252	2				1	1	1	BlockProc	List3	2																	2	1	2							NumberProc	List2									10	Button1.png	Button2.png	Button3.png	Button4.png	Bluetriangle1.png							v	0	3	1	10				0	TrialProc	NumberList							1	v	0	1	232730	0	v	2397	number
Wisconsin	1171	1	<?xml version="1.0"?>\n<Clock xmlns:dt="urn:schemas-microsoft-com:datatypes"><Description dt:dt="string">E-Prime Primary Realtime Clock</Description><StartTime><Timestamp dt:dt="int">0</Timestamp><DateUtc dt:dt="string">2022-11-12T07:15:46Z</DateUtc></StartTime><FrequencyChanges><FrequencyChange><Frequency dt:dt="r8">2929873</Frequency><Timestamp dt:dt="r8">57343128828</Timestamp><Current dt:dt="r8">0</Current><DateUtc dt:dt="string">2022-11-12T07:15:46Z</DateUtc></FrequencyChange></FrequencyChanges></Clock>\n	Wisconsin-1171-1	59.957	1.0.0.531	1	1509108522	Professional	2.0.10.356	2.0.10.356	11-12-2022	11/12/2022 7:15:46 AM	15:15:46	2.0.10.252	2				1	1	1	BlockProc	List3	3																	3	1	3							ShapeProc	List2									1	Button1.png	Button2.png	Button3.png	Button4.png	Redtriangle1.png							x	1							0	TrialProc	ShapeList	7	1	1				0	x	0	1	237667	0	c	4563	Shape
Wisconsin	1171	1	<?xml version="1.0"?>\n<Clock xmlns:dt="urn:schemas-microsoft-com:datatypes"><Description dt:dt="string">E-Prime Primary Realtime Clock</Description><StartTime><Timestamp dt:dt="int">0</Timestamp><DateUtc dt:dt="string">2022-11-12T07:15:46Z</DateUtc></StartTime><FrequencyChanges><FrequencyChange><Frequency dt:dt="r8">2929873</Frequency><Timestamp dt:dt="r8">57343128828</Timestamp><Current dt:dt="r8">0</Current><DateUtc dt:dt="string">2022-11-12T07:15:46Z</DateUtc></FrequencyChange></FrequencyChanges></Clock>\n	Wisconsin-1171-1	59.957	1.0.0.531	1	1509108522	Professional	2.0.10.356	2.0.10.356	11-12-2022	11/12/2022 7:15:46 AM	15:15:46	2.0.10.252	2				1	1	1	BlockProc	List3	3																	3	1	3							ShapeProc	List2									2	Button1.png	Button2.png	Button3.png	Button4.png	Yellowstar1.png							v	0							0	TrialProc	ShapeList	9	1	2				1	v	0	1	244772	0	v	1170	Shape
Wisconsin	1171	1	<?xml version="1.0"?>\n<Clock xmlns:dt="urn:schemas-microsoft-com:datatypes"><Description dt:dt="string">E-Prime Primary Realtime Clock</Description><StartTime><Timestamp dt:dt="int">0</Timestamp><DateUtc dt:dt="string">2022-11-12T07:15:46Z</DateUtc></StartTime><FrequencyChanges><FrequencyChange><Frequency dt:dt="r8">2929873</Frequency><Timestamp dt:dt="r8">57343128828</Timestamp><Current dt:dt="r8">0</Current><DateUtc dt:dt="string">2022-11-12T07:15:46Z</DateUtc></FrequencyChange></FrequencyChanges></Clock>\n	Wisconsin-1171-1	59.957	1.0.0.531	1	1509108522	Professional	2.0.10.356	2.0.10.356	11-12-2022	11/12/2022 7:15:46 AM	15:15:46	2.0.10.252	2				1	1	1	BlockProc	List3	3																	3	1	3							ShapeProc	List2									3	Button1.png	Button2.png	Button3.png	Button4.png	Redcross4.png							c	0							0	TrialProc	ShapeList	6	1	3				1	c	0	1	248475	0	c	1195	Shape
Wisconsin	1171	1	<?xml version="1.0"?>\n<Clock xmlns:dt="urn:schemas-microsoft-com:datatypes"><Description dt:dt="string">E-Prime Primary Realtime Clock</Description><StartTime><Timestamp dt:dt="int">0</Timestamp><DateUtc dt:dt="string">2022-11-12T07:15:46Z</DateUtc></StartTime><FrequencyChanges><FrequencyChange><Frequency dt:dt="r8">2929873</Frequency><Timestamp dt:dt="r8">57343128828</Timestamp><Current dt:dt="r8">0</Current><DateUtc dt:dt="string">2022-11-12T07:15:46Z</DateUtc></FrequencyChange></FrequencyChanges></Clock>\n	Wisconsin-1171-1	59.957	1.0.0.531	1	1509108522	Professional	2.0.10.356	2.0.10.356	11-12-2022	11/12/2022 7:15:46 AM	15:15:46	2.0.10.252	2				1	1	1	BlockProc	List3	3																	3	1	3							ShapeProc	List2									4	Button1.png	Button2.png	Button3.png	Button4.png	Yellowstar4.png							v	0							0	TrialProc	ShapeList	10	1	4				1	v	0	1	252211	0	v	1363	Shape
Wisconsin	1171	1	<?xml version="1.0"?>\n<Clock xmlns:dt="urn:schemas-microsoft-com:datatypes"><Description dt:dt="string">E-Prime Primary Realtime Clock</Description><StartTime><Timestamp dt:dt="int">0</Timestamp><DateUtc dt:dt="string">2022-11-12T07:15:46Z</DateUtc></StartTime><FrequencyChanges><FrequencyChange><Frequency dt:dt="r8">2929873</Frequency><Timestamp dt:dt="r8">57343128828</Timestamp><Current dt:dt="r8">0</Current><DateUtc dt:dt="string">2022-11-12T07:15:46Z</DateUtc></FrequencyChange></FrequencyChanges></Clock>\n	Wisconsin-1171-1	59.957	1.0.0.531	1	1509108522	Professional	2.0.10.356	2.0.10.356	11-12-2022	11/12/2022 7:15:46 AM	15:15:46	2.0.10.252	2				1	1	1	BlockProc	List3	3																	3	1	3							ShapeProc	List2									5	Button1.png	Button2.png	Button3.png	Button4.png	Bluecircle2.png							z	0							0	TrialProc	ShapeList	1	1	5				1	z	0	1	256114	0	z	1235	Shape
Wisconsin	1171	1	<?xml version="1.0"?>\n<Clock xmlns:dt="urn:schemas-microsoft-com:datatypes"><Description dt:dt="string">E-Prime Primary Realtime Clock</Description><StartTime><Timestamp dt:dt="int">0</Timestamp><DateUtc dt:dt="string">2022-11-12T07:15:46Z</DateUtc></StartTime><FrequencyChanges><FrequencyChange><Frequency dt:dt="r8">2929873</Frequency><Timestamp dt:dt="r8">57343128828</Timestamp><Current dt:dt="r8">0</Current><DateUtc dt:dt="string">2022-11-12T07:15:46Z</DateUtc></FrequencyChange></FrequencyChanges></Clock>\n	Wisconsin-1171-1	59.957	1.0.0.531	1	1509108522	Professional	2.0.10.356	2.0.10.356	11-12-2022	11/12/2022 7:15:46 AM	15:15:46	2.0.10.252	2				1	1	1	BlockProc	List3	3																	3	1	3							ShapeProc	List2									6	Button1.png	Button2.png	Button3.png	Button4.png	Greentriangle4.png							x	0							0	TrialProc	ShapeList	4	1	6				1	x	0	1	259883	0	x	1050	Shape
Wisconsin	1171	1	<?xml version="1.0"?>\n<Clock xmlns:dt="urn:schemas-microsoft-com:datatypes"><Description dt:dt="string">E-Prime Primary Realtime Clock</Description><StartTime><Timestamp dt:dt="int">0</Timestamp><DateUtc dt:dt="string">2022-11-12T07:15:46Z</DateUtc></StartTime><FrequencyChanges><FrequencyChange><Frequency dt:dt="r8">2929873</Frequency><Timestamp dt:dt="r8">57343128828</Timestamp><Current dt:dt="r8">0</Current><DateUtc dt:dt="string">2022-11-12T07:15:46Z</DateUtc></FrequencyChange></FrequencyChanges></Clock>\n	Wisconsin-1171-1	59.957	1.0.0.531	1	1509108522	Professional	2.0.10.356	2.0.10.356	11-12-2022	11/12/2022 7:15:46 AM	15:15:46	2.0.10.252	2				1	1	1	BlockProc	List3	3																	3	1	3							ShapeProc	List2									7	Button1.png	Button2.png	Button3.png	Button4.png	Bluecross4.png							c	1							0	TrialProc	ShapeList	2	1	7				0	c	0	1	263469	0	v	2104	Shape
Wisconsin	1171	1	<?xml version="1.0"?>\n<Clock xmlns:dt="urn:schemas-microsoft-com:datatypes"><Description dt:dt="string">E-Prime Primary Realtime Clock</Description><StartTime><Timestamp dt:dt="int">0</Timestamp><DateUtc dt:dt="string">2022-11-12T07:15:46Z</DateUtc></StartTime><FrequencyChanges><FrequencyChange><Frequency dt:dt="r8">2929873</Frequency><Timestamp dt:dt="r8">57343128828</Timestamp><Current dt:dt="r8">0</Current><DateUtc dt:dt="string">2022-11-12T07:15:46Z</DateUtc></FrequencyChange></FrequencyChanges></Clock>\n	Wisconsin-1171-1	59.957	1.0.0.531	1	1509108522	Professional	2.0.10.356	2.0.10.356	11-12-2022	11/12/2022 7:15:46 AM	15:15:46	2.0.10.252	2				1	1	1	BlockProc	List3	3																	3	1	3							ShapeProc	List2									8	Button1.png	Button2.png	Button3.png	Button4.png	Redcross1.png							c	0							0	TrialProc	ShapeList	5	1	8				1	c	1	0	268105	0	c	1164	Shape
Wisconsin	1171	1	<?xml version="1.0"?>\n<Clock xmlns:dt="urn:schemas-microsoft-com:datatypes"><Description dt:dt="string">E-Prime Primary Realtime Clock</Description><StartTime><Timestamp dt:dt="int">0</Timestamp><DateUtc dt:dt="string">2022-11-12T07:15:46Z</DateUtc></StartTime><FrequencyChanges><FrequencyChange><Frequency dt:dt="r8">2929873</Frequency><Timestamp dt:dt="r8">57343128828</Timestamp><Current dt:dt="r8">0</Current><DateUtc dt:dt="string">2022-11-12T07:15:46Z</DateUtc></FrequencyChange></FrequencyChanges></Clock>\n	Wisconsin-1171-1	59.957	1.0.0.531	1	1509108522	Professional	2.0.10.356	2.0.10.356	11-12-2022	11/12/2022 7:15:46 AM	15:15:46	2.0.10.252	2				1	1	1	BlockProc	List3	3																	3	1	3							ShapeProc	List2									9	Button1.png	Button2.png	Button3.png	Button4.png	yellowcircle3.png							z	0							0	TrialProc	ShapeList	8	1	9				1	z	0	1	271808	0	z	1924	Shape
Wisconsin	1171	1	<?xml version="1.0"?>\n<Clock xmlns:dt="urn:schemas-microsoft-com:datatypes"><Description dt:dt="string">E-Prime Primary Realtime Clock</Description><StartTime><Timestamp dt:dt="int">0</Timestamp><DateUtc dt:dt="string">2022-11-12T07:15:46Z</DateUtc></StartTime><FrequencyChanges><FrequencyChange><Frequency dt:dt="r8">2929873</Frequency><Timestamp dt:dt="r8">57343128828</Timestamp><Current dt:dt="r8">0</Current><DateUtc dt:dt="string">2022-11-12T07:15:46Z</DateUtc></FrequencyChange></FrequencyChanges></Clock>\n	Wisconsin-1171-1	59.957	1.0.0.531	1	1509108522	Professional	2.0.10.356	2.0.10.356	11-12-2022	11/12/2022 7:15:46 AM	15:15:46	2.0.10.252	2				1	1	1	BlockProc	List3	3																	3	1	3							ShapeProc	List2									10	Button1.png	Button2.png	Button3.png	Button4.png	Greencross1.png							c	1							0	TrialProc	ShapeList	3	1	10				0	c	0	0	276261	0	z	2079	Shape
Wisconsin	1171	1	<?xml version="1.0"?>\n<Clock xmlns:dt="urn:schemas-microsoft-com:datatypes"><Description dt:dt="string">E-Prime Primary Realtime Clock</Description><StartTime><Timestamp dt:dt="int">0</Timestamp><DateUtc dt:dt="string">2022-11-12T07:15:46Z</DateUtc></StartTime><FrequencyChanges><FrequencyChange><Frequency dt:dt="r8">2929873</Frequency><Timestamp dt:dt="r8">57343128828</Timestamp><Current dt:dt="r8">0</Current><DateUtc dt:dt="string">2022-11-12T07:15:46Z</DateUtc></FrequencyChange></FrequencyChanges></Clock>\n	Wisconsin-1171-1	59.957	1.0.0.531	1	1509108522	Professional	2.0.10.356	2.0.10.356	11-12-2022	11/12/2022 7:15:46 AM	15:15:46	2.0.10.252	3				2	1	2	BlockProc2	List3	1																				3	1	1				ShapeProc2	List4									1	Button1.png	Button2.png	Button3.png	Button4.png	Bluecircle3.png							z	0							0	TrialProc	ShapeList1				1	1	1	1	z	0	0	280881	0	z	2115	Shape
Wisconsin	1171	1	<?xml version="1.0"?>\n<Clock xmlns:dt="urn:schemas-microsoft-com:datatypes"><Description dt:dt="string">E-Prime Primary Realtime Clock</Description><StartTime><Timestamp dt:dt="int">0</Timestamp><DateUtc dt:dt="string">2022-11-12T07:15:46Z</DateUtc></StartTime><FrequencyChanges><FrequencyChange><Frequency dt:dt="r8">2929873</Frequency><Timestamp dt:dt="r8">57343128828</Timestamp><Current dt:dt="r8">0</Current><DateUtc dt:dt="string">2022-11-12T07:15:46Z</DateUtc></FrequencyChange></FrequencyChanges></Clock>\n	Wisconsin-1171-1	59.957	1.0.0.531	1	1509108522	Professional	2.0.10.356	2.0.10.356	11-12-2022	11/12/2022 7:15:46 AM	15:15:46	2.0.10.252	3				2	1	2	BlockProc2	List3	1																				3	1	1				ShapeProc2	List4									2	Button1.png	Button2.png	Button3.png	Button4.png	Yellowstar2.png							v	0							0	TrialProc	ShapeList1				9	1	2	1	v	0	1	285535	0	v	1028	Shape
Wisconsin	1171	1	<?xml version="1.0"?>\n<Clock xmlns:dt="urn:schemas-microsoft-com:datatypes"><Description dt:dt="string">E-Prime Primary Realtime Clock</Description><StartTime><Timestamp dt:dt="int">0</Timestamp><DateUtc dt:dt="string">2022-11-12T07:15:46Z</DateUtc></StartTime><FrequencyChanges><FrequencyChange><Frequency dt:dt="r8">2929873</Frequency><Timestamp dt:dt="r8">57343128828</Timestamp><Current dt:dt="r8">0</Current><DateUtc dt:dt="string">2022-11-12T07:15:46Z</DateUtc></FrequencyChange></FrequencyChanges></Clock>\n	Wisconsin-1171-1	59.957	1.0.0.531	1	1509108522	Professional	2.0.10.356	2.0.10.356	11-12-2022	11/12/2022 7:15:46 AM	15:15:46	2.0.10.252	3				2	1	2	BlockProc2	List3	1																				3	1	1				ShapeProc2	List4									3	Button1.png	Button2.png	Button3.png	Button4.png	Greenstar3.png							v	0							0	TrialProc	ShapeList1				3	1	3	1	v	0	1	289104	0	v	1091	Shape
Wisconsin	1171	1	<?xml version="1.0"?>\n<Clock xmlns:dt="urn:schemas-microsoft-com:datatypes"><Description dt:dt="string">E-Prime Primary Realtime Clock</Description><StartTime><Timestamp dt:dt="int">0</Timestamp><DateUtc dt:dt="string">2022-11-12T07:15:46Z</DateUtc></StartTime><FrequencyChanges><FrequencyChange><Frequency dt:dt="r8">2929873</Frequency><Timestamp dt:dt="r8">57343128828</Timestamp><Current dt:dt="r8">0</Current><DateUtc dt:dt="string">2022-11-12T07:15:46Z</DateUtc></FrequencyChange></FrequencyChanges></Clock>\n	Wisconsin-1171-1	59.957	1.0.0.531	1	1509108522	Professional	2.0.10.356	2.0.10.356	11-12-2022	11/12/2022 7:15:46 AM	15:15:46	2.0.10.252	3				2	1	2	BlockProc2	List3	1																				3	1	1				ShapeProc2	List4									4	Button1.png	Button2.png	Button3.png	Button4.png	Bluetriangle2.png							x	1							0	TrialProc	ShapeList1				2	1	4	0	x	0	0	292723	0	v	1792	Shape
Wisconsin	1171	1	<?xml version="1.0"?>\n<Clock xmlns:dt="urn:schemas-microsoft-com:datatypes"><Description dt:dt="string">E-Prime Primary Realtime Clock</Description><StartTime><Timestamp dt:dt="int">0</Timestamp><DateUtc dt:dt="string">2022-11-12T07:15:46Z</DateUtc></StartTime><FrequencyChanges><FrequencyChange><Frequency dt:dt="r8">2929873</Frequency><Timestamp dt:dt="r8">57343128828</Timestamp><Current dt:dt="r8">0</Current><DateUtc dt:dt="string">2022-11-12T07:15:46Z</DateUtc></FrequencyChange></FrequencyChanges></Clock>\n	Wisconsin-1171-1	59.957	1.0.0.531	1	1509108522	Professional	2.0.10.356	2.0.10.356	11-12-2022	11/12/2022 7:15:46 AM	15:15:46	2.0.10.252	3				2	1	2	BlockProc2	List3	1																				3	1	1				ShapeProc2	List4									5	Button1.png	Button2.png	Button3.png	Button4.png	Redcross2.png							c	0							0	TrialProc	ShapeList1				5	1	5	1	c	0	1	297043	0	c	992	Shape
Wisconsin	1171	1	<?xml version="1.0"?>\n<Clock xmlns:dt="urn:schemas-microsoft-com:datatypes"><Description dt:dt="string">E-Prime Primary Realtime Clock</Description><StartTime><Timestamp dt:dt="int">0</Timestamp><DateUtc dt:dt="string">2022-11-12T07:15:46Z</DateUtc></StartTime><FrequencyChanges><FrequencyChange><Frequency dt:dt="r8">2929873</Frequency><Timestamp dt:dt="r8">57343128828</Timestamp><Current dt:dt="r8">0</Current><DateUtc dt:dt="string">2022-11-12T07:15:46Z</DateUtc></FrequencyChange></FrequencyChanges></Clock>\n	Wisconsin-1171-1	59.957	1.0.0.531	1	1509108522	Professional	2.0.10.356	2.0.10.356	11-12-2022	11/12/2022 7:15:46 AM	15:15:46	2.0.10.252	3				2	1	2	BlockProc2	List3	1																				3	1	1				ShapeProc2	List4									6	Button1.png	Button2.png	Button3.png	Button4.png	yellowcross4.png							c	0							0	TrialProc	ShapeList1				8	1	6	1	c	0	1	300579	0	c	2735	Shape
Wisconsin	1171	1	<?xml version="1.0"?>\n<Clock xmlns:dt="urn:schemas-microsoft-com:datatypes"><Description dt:dt="string">E-Prime Primary Realtime Clock</Description><StartTime><Timestamp dt:dt="int">0</Timestamp><DateUtc dt:dt="string">2022-11-12T07:15:46Z</DateUtc></StartTime><FrequencyChanges><FrequencyChange><Frequency dt:dt="r8">2929873</Frequency><Timestamp dt:dt="r8">57343128828</Timestamp><Current dt:dt="r8">0</Current><DateUtc dt:dt="string">2022-11-12T07:15:46Z</DateUtc></FrequencyChange></FrequencyChanges></Clock>\n	Wisconsin-1171-1	59.957	1.0.0.531	1	1509108522	Professional	2.0.10.356	2.0.10.356	11-12-2022	11/12/2022 7:15:46 AM	15:15:46	2.0.10.252	3				2	1	2	BlockProc2	List3	1																				3	1	1				ShapeProc2	List4									7	Button1.png	Button2.png	Button3.png	Button4.png	Redtriangle3.png							x	0							0	TrialProc	ShapeList1				7	1	7	1	x	0	0	305849	0	x	3193	Shape
Wisconsin	1171	1	<?xml version="1.0"?>\n<Clock xmlns:dt="urn:schemas-microsoft-com:datatypes"><Description dt:dt="string">E-Prime Primary Realtime Clock</Description><StartTime><Timestamp dt:dt="int">0</Timestamp><DateUtc dt:dt="string">2022-11-12T07:15:46Z</DateUtc></StartTime><FrequencyChanges><FrequencyChange><Frequency dt:dt="r8">2929873</Frequency><Timestamp dt:dt="r8">57343128828</Timestamp><Current dt:dt="r8">0</Current><DateUtc dt:dt="string">2022-11-12T07:15:46Z</DateUtc></FrequencyChange></FrequencyChanges></Clock>\n	Wisconsin-1171-1	59.957	1.0.0.531	1	1509108522	Professional	2.0.10.356	2.0.10.356	11-12-2022	11/12/2022 7:15:46 AM	15:15:46	2.0.10.252	3				2	1	2	BlockProc2	List3	1																				3	1	1				ShapeProc2	List4									8	Button1.png	Button2.png	Button3.png	Button4.png	Yellowtriangle1.png							x	0							0	TrialProc	ShapeList1				10	1	8	1	x	0	1	311570	0	x	1040	Shape
Wisconsin	1171	1	<?xml version="1.0"?>\n<Clock xmlns:dt="urn:schemas-microsoft-com:datatypes"><Description dt:dt="string">E-Prime Primary Realtime Clock</Description><StartTime><Timestamp dt:dt="int">0</Timestamp><DateUtc dt:dt="string">2022-11-12T07:15:46Z</DateUtc></StartTime><FrequencyChanges><FrequencyChange><Frequency dt:dt="r8">2929873</Frequency><Timestamp dt:dt="r8">57343128828</Timestamp><Current dt:dt="r8">0</Current><DateUtc dt:dt="string">2022-11-12T07:15:46Z</DateUtc></FrequencyChange></FrequencyChanges></Clock>\n	Wisconsin-1171-1	59.957	1.0.0.531	1	1509108522	Professional	2.0.10.356	2.0.10.356	11-12-2022	11/12/2022 7:15:46 AM	15:15:46	2.0.10.252	3				2	1	2	BlockProc2	List3	1																				3	1	1				ShapeProc2	List4									9	Button1.png	Button2.png	Button3.png	Button4.png	Redstar3.png							v	0							0	TrialProc	ShapeList1				6	1	9	1	v	0	0	315139	0	v	1039	Shape
Wisconsin	1171	1	<?xml version="1.0"?>\n<Clock xmlns:dt="urn:schemas-microsoft-com:datatypes"><Description dt:dt="string">E-Prime Primary Realtime Clock</Description><StartTime><Timestamp dt:dt="int">0</Timestamp><DateUtc dt:dt="string">2022-11-12T07:15:46Z</DateUtc></StartTime><FrequencyChanges><FrequencyChange><Frequency dt:dt="r8">2929873</Frequency><Timestamp dt:dt="r8">57343128828</Timestamp><Current dt:dt="r8">0</Current><DateUtc dt:dt="string">2022-11-12T07:15:46Z</DateUtc></FrequencyChange></FrequencyChanges></Clock>\n	Wisconsin-1171-1	59.957	1.0.0.531	1	1509108522	Professional	2.0.10.356	2.0.10.356	11-12-2022	11/12/2022 7:15:46 AM	15:15:46	2.0.10.252	3				2	1	2	BlockProc2	List3	1																				3	1	1				ShapeProc2	List4									10	Button1.png	Button2.png	Button3.png	Button4.png	redcircle1.png							z	0							0	TrialProc	ShapeList1				4	1	10	1	z	0	1	318709	0	z	972	Shape
Wisconsin	1171	1	<?xml version="1.0"?>\n<Clock xmlns:dt="urn:schemas-microsoft-com:datatypes"><Description dt:dt="string">E-Prime Primary Realtime Clock</Description><StartTime><Timestamp dt:dt="int">0</Timestamp><DateUtc dt:dt="string">2022-11-12T07:15:46Z</DateUtc></StartTime><FrequencyChanges><FrequencyChange><Frequency dt:dt="r8">2929873</Frequency><Timestamp dt:dt="r8">57343128828</Timestamp><Current dt:dt="r8">0</Current><DateUtc dt:dt="string">2022-11-12T07:15:46Z</DateUtc></FrequencyChange></FrequencyChanges></Clock>\n	Wisconsin-1171-1	59.957	1.0.0.531	1	1509108522	Professional	2.0.10.356	2.0.10.356	11-12-2022	11/12/2022 7:15:46 AM	15:15:46	2.0.10.252	3				2	1	2	BlockProc2	List3	2																				2	1	2				NumberProc2	List4									1	Button1.png	Button2.png	Button3.png	Button4.png	Redstar1.png							v	0				6	1	1	0	TrialProc	NumberList1							1	v	0	1	322211	0	v	926	number
Wisconsin	1171	1	<?xml version="1.0"?>\n<Clock xmlns:dt="urn:schemas-microsoft-com:datatypes"><Description dt:dt="string">E-Prime Primary Realtime Clock</Description><StartTime><Timestamp dt:dt="int">0</Timestamp><DateUtc dt:dt="string">2022-11-12T07:15:46Z</DateUtc></StartTime><FrequencyChanges><FrequencyChange><Frequency dt:dt="r8">2929873</Frequency><Timestamp dt:dt="r8">57343128828</Timestamp><Current dt:dt="r8">0</Current><DateUtc dt:dt="string">2022-11-12T07:15:46Z</DateUtc></FrequencyChange></FrequencyChanges></Clock>\n	Wisconsin-1171-1	59.957	1.0.0.531	1	1509108522	Professional	2.0.10.356	2.0.10.356	11-12-2022	11/12/2022 7:15:46 AM	15:15:46	2.0.10.252	3				2	1	2	BlockProc2	List3	2																				2	1	2				NumberProc2	List4									2	Button1.png	Button2.png	Button3.png	Button4.png	Bluetriangle4.png							x	1				3	1	2	0	TrialProc	NumberList1							0	x	0	0	325680	0	v	2993	number
Wisconsin	1171	1	<?xml version="1.0"?>\n<Clock xmlns:dt="urn:schemas-microsoft-com:datatypes"><Description dt:dt="string">E-Prime Primary Realtime Clock</Description><StartTime><Timestamp dt:dt="int">0</Timestamp><DateUtc dt:dt="string">2022-11-12T07:15:46Z</DateUtc></StartTime><FrequencyChanges><FrequencyChange><Frequency dt:dt="r8">2929873</Frequency><Timestamp dt:dt="r8">57343128828</Timestamp><Current dt:dt="r8">0</Current><DateUtc dt:dt="string">2022-11-12T07:15:46Z</DateUtc></FrequencyChange></FrequencyChanges></Clock>\n	Wisconsin-1171-1	59.957	1.0.0.531	1	1509108522	Professional	2.0.10.356	2.0.10.356	11-12-2022	11/12/2022 7:15:46 AM	15:15:46	2.0.10.252	3				2	1	2	BlockProc2	List3	2																				2	1	2				NumberProc2	List4									3	Button1.png	Button2.png	Button3.png	Button4.png	Greenstar1.png							v	0				5	1	3	0	TrialProc	NumberList1							1	v	0	1	331201	0	v	816	number
Wisconsin	1171	1	<?xml version="1.0"?>\n<Clock xmlns:dt="urn:schemas-microsoft-com:datatypes"><Description dt:dt="string">E-Prime Primary Realtime Clock</Description><StartTime><Timestamp dt:dt="int">0</Timestamp><DateUtc dt:dt="string">2022-11-12T07:15:46Z</DateUtc></StartTime><FrequencyChanges><FrequencyChange><Frequency dt:dt="r8">2929873</Frequency><Timestamp dt:dt="r8">57343128828</Timestamp><Current dt:dt="r8">0</Current><DateUtc dt:dt="string">2022-11-12T07:15:46Z</DateUtc></FrequencyChange></FrequencyChanges></Clock>\n	Wisconsin-1171-1	59.957	1.0.0.531	1	1509108522	Professional	2.0.10.356	2.0.10.356	11-12-2022	11/12/2022 7:15:46 AM	15:15:46	2.0.10.252	3				2	1	2	BlockProc2	List3	2																				2	1	2				NumberProc2	List4									4	Button1.png	Button2.png	Button3.png	Button4.png	yellowcircle4.png							x	1				8	1	4	0	TrialProc	NumberList1							0	x	1	0	334553	0	z	3751	number
Wisconsin	1171	1	<?xml version="1.0"?>\n<Clock xmlns:dt="urn:schemas-microsoft-com:datatypes"><Description dt:dt="string">E-Prime Primary Realtime Clock</Description><StartTime><Timestamp dt:dt="int">0</Timestamp><DateUtc dt:dt="string">2022-11-12T07:15:46Z</DateUtc></StartTime><FrequencyChanges><FrequencyChange><Frequency dt:dt="r8">2929873</Frequency><Timestamp dt:dt="r8">57343128828</Timestamp><Current dt:dt="r8">0</Current><DateUtc dt:dt="string">2022-11-12T07:15:46Z</DateUtc></FrequencyChange></FrequencyChanges></Clock>\n	Wisconsin-1171-1	59.957	1.0.0.531	1	1509108522	Professional	2.0.10.356	2.0.10.356	11-12-2022	11/12/2022 7:15:46 AM	15:15:46	2.0.10.252	3				2	1	2	BlockProc2	List3	2																				2	1	2				NumberProc2	List4									5	Button1.png	Button2.png	Button3.png	Button4.png	Yellowcross2.png							z	1				9	1	5	0	TrialProc	NumberList1							0	z	0	1	340841	0	c	1095	number
Wisconsin	1171	1	<?xml version="1.0"?>\n<Clock xmlns:dt="urn:schemas-microsoft-com:datatypes"><Description dt:dt="string">E-Prime Primary Realtime Clock</Description><StartTime><Timestamp dt:dt="int">0</Timestamp><DateUtc dt:dt="string">2022-11-12T07:15:46Z</DateUtc></StartTime><FrequencyChanges><FrequencyChange><Frequency dt:dt="r8">2929873</Frequency><Timestamp dt:dt="r8">57343128828</Timestamp><Current dt:dt="r8">0</Current><DateUtc dt:dt="string">2022-11-12T07:15:46Z</DateUtc></FrequencyChange></FrequencyChanges></Clock>\n	Wisconsin-1171-1	59.957	1.0.0.531	1	1509108522	Professional	2.0.10.356	2.0.10.356	11-12-2022	11/12/2022 7:15:46 AM	15:15:46	2.0.10.252	3				2	1	2	BlockProc2	List3	2																				2	1	2				NumberProc2	List4									6	Button1.png	Button2.png	Button3.png	Button4.png	Bluecross3.png							c	1				1	1	6	0	TrialProc	NumberList1							0	c	0	1	344477	0	v	1171	number
Wisconsin	1171	1	<?xml version="1.0"?>\n<Clock xmlns:dt="urn:schemas-microsoft-com:datatypes"><Description dt:dt="string">E-Prime Primary Realtime Clock</Description><StartTime><Timestamp dt:dt="int">0</Timestamp><DateUtc dt:dt="string">2022-11-12T07:15:46Z</DateUtc></StartTime><FrequencyChanges><FrequencyChange><Frequency dt:dt="r8">2929873</Frequency><Timestamp dt:dt="r8">57343128828</Timestamp><Current dt:dt="r8">0</Current><DateUtc dt:dt="string">2022-11-12T07:15:46Z</DateUtc></FrequencyChange></FrequencyChanges></Clock>\n	Wisconsin-1171-1	59.957	1.0.0.531	1	1509108522	Professional	2.0.10.356	2.0.10.356	11-12-2022	11/12/2022 7:15:46 AM	15:15:46	2.0.10.252	3				2	1	2	BlockProc2	List3	2																				2	1	2				NumberProc2	List4									7	Button1.png	Button2.png	Button3.png	Button4.png	Redtriangle2.png							z	1				7	1	7	0	TrialProc	NumberList1							0	z	0	1	348180	0	c	2699	number
Wisconsin	1171	1	<?xml version="1.0"?>\n<Clock xmlns:dt="urn:schemas-microsoft-com:datatypes"><Description dt:dt="string">E-Prime Primary Realtime Clock</Description><StartTime><Timestamp dt:dt="int">0</Timestamp><DateUtc dt:dt="string">2022-11-12T07:15:46Z</DateUtc></StartTime><FrequencyChanges><FrequencyChange><Frequency dt:dt="r8">2929873</Frequency><Timestamp dt:dt="r8">57343128828</Timestamp><Current dt:dt="r8">0</Current><DateUtc dt:dt="string">2022-11-12T07:15:46Z</DateUtc></FrequencyChange></FrequencyChanges></Clock>\n	Wisconsin-1171-1	59.957	1.0.0.531	1	1509108522	Professional	2.0.10.356	2.0.10.356	11-12-2022	11/12/2022 7:15:46 AM	15:15:46	2.0.10.252	3				2	1	2	BlockProc2	List3	2																				2	1	2				NumberProc2	List4									8	Button1.png	Button2.png	Button3.png	Button4.png	Bluestar4.png							x	1				2	1	8	0	TrialProc	NumberList1							0	x	0	1	353417	0	v	870	number
Wisconsin	1171	1	<?xml version="1.0"?>\n<Clock xmlns:dt="urn:schemas-microsoft-com:datatypes"><Description dt:dt="string">E-Prime Primary Realtime Clock</Description><StartTime><Timestamp dt:dt="int">0</Timestamp><DateUtc dt:dt="string">2022-11-12T07:15:46Z</DateUtc></StartTime><FrequencyChanges><FrequencyChange><Frequency dt:dt="r8">2929873</Frequency><Timestamp dt:dt="r8">57343128828</Timestamp><Current dt:dt="r8">0</Current><DateUtc dt:dt="string">2022-11-12T07:15:46Z</DateUtc></FrequencyChange></FrequencyChanges></Clock>\n	Wisconsin-1171-1	59.957	1.0.0.531	1	1509108522	Professional	2.0.10.356	2.0.10.356	11-12-2022	11/12/2022 7:15:46 AM	15:15:46	2.0.10.252	3				2	1	2	BlockProc2	List3	2																				2	1	2				NumberProc2	List4									9	Button1.png	Button2.png	Button3.png	Button4.png	Yellowtriangle2.png							z	1				10	1	9	0	TrialProc	NumberList1							0	z	0	0	356819	0	x	2524	number
Wisconsin	1171	1	<?xml version="1.0"?>\n<Clock xmlns:dt="urn:schemas-microsoft-com:datatypes"><Description dt:dt="string">E-Prime Primary Realtime Clock</Description><StartTime><Timestamp dt:dt="int">0</Timestamp><DateUtc dt:dt="string">2022-11-12T07:15:46Z</DateUtc></StartTime><FrequencyChanges><FrequencyChange><Frequency dt:dt="r8">2929873</Frequency><Timestamp dt:dt="r8">57343128828</Timestamp><Current dt:dt="r8">0</Current><DateUtc dt:dt="string">2022-11-12T07:15:46Z</DateUtc></FrequencyChange></FrequencyChanges></Clock>\n	Wisconsin-1171-1	59.957	1.0.0.531	1	1509108522	Professional	2.0.10.356	2.0.10.356	11-12-2022	11/12/2022 7:15:46 AM	15:15:46	2.0.10.252	3				2	1	2	BlockProc2	List3	2																				2	1	2				NumberProc2	List4									10	Button1.png	Button2.png	Button3.png	Button4.png	Greencross2.png							z	1				4	1	10	0	TrialProc	NumberList1							0	z	0	1	361873	0	c	1982	number
Wisconsin	1171	1	<?xml version="1.0"?>\n<Clock xmlns:dt="urn:schemas-microsoft-com:datatypes"><Description dt:dt="string">E-Prime Primary Realtime Clock</Description><StartTime><Timestamp dt:dt="int">0</Timestamp><DateUtc dt:dt="string">2022-11-12T07:15:46Z</DateUtc></StartTime><FrequencyChanges><FrequencyChange><Frequency dt:dt="r8">2929873</Frequency><Timestamp dt:dt="r8">57343128828</Timestamp><Current dt:dt="r8">0</Current><DateUtc dt:dt="string">2022-11-12T07:15:46Z</DateUtc></FrequencyChange></FrequencyChanges></Clock>\n	Wisconsin-1171-1	59.957	1.0.0.531	1	1509108522	Professional	2.0.10.356	2.0.10.356	11-12-2022	11/12/2022 7:15:46 AM	15:15:46	2.0.10.252	3				2	1	2	BlockProc2	List3	3																				1	1	3				ColorProc2	List4									1	BUTTON1.png	BUTTON2.PNG	BUTTON3.png	BUTTON4.png	greenstar4.png				5	1	1	z	1							0	TrialProc	ColorList2							0	z	0	1	366393	0	v	1253	color
Wisconsin	1171	1	<?xml version="1.0"?>\n<Clock xmlns:dt="urn:schemas-microsoft-com:datatypes"><Description dt:dt="string">E-Prime Primary Realtime Clock</Description><StartTime><Timestamp dt:dt="int">0</Timestamp><DateUtc dt:dt="string">2022-11-12T07:15:46Z</DateUtc></StartTime><FrequencyChanges><FrequencyChange><Frequency dt:dt="r8">2929873</Frequency><Timestamp dt:dt="r8">57343128828</Timestamp><Current dt:dt="r8">0</Current><DateUtc dt:dt="string">2022-11-12T07:15:46Z</DateUtc></FrequencyChange></FrequencyChanges></Clock>\n	Wisconsin-1171-1	59.957	1.0.0.531	1	1509108522	Professional	2.0.10.356	2.0.10.356	11-12-2022	11/12/2022 7:15:46 AM	15:15:46	2.0.10.252	3				2	1	2	BlockProc2	List3	3																				1	1	3				ColorProc2	List4									2	BUTTON1.png	BUTTON2.PNG	BUTTON3.png	BUTTON4.png	greentriangle2.png				6	1	2	z	1							0	TrialProc	ColorList2							0	z	0	1	370179	0	x	3371	color
Wisconsin	1171	1	<?xml version="1.0"?>\n<Clock xmlns:dt="urn:schemas-microsoft-com:datatypes"><Description dt:dt="string">E-Prime Primary Realtime Clock</Description><StartTime><Timestamp dt:dt="int">0</Timestamp><DateUtc dt:dt="string">2022-11-12T07:15:46Z</DateUtc></StartTime><FrequencyChanges><FrequencyChange><Frequency dt:dt="r8">2929873</Frequency><Timestamp dt:dt="r8">57343128828</Timestamp><Current dt:dt="r8">0</Current><DateUtc dt:dt="string">2022-11-12T07:15:46Z</DateUtc></FrequencyChange></FrequencyChanges></Clock>\n	Wisconsin-1171-1	59.957	1.0.0.531	1	1509108522	Professional	2.0.10.356	2.0.10.356	11-12-2022	11/12/2022 7:15:46 AM	15:15:46	2.0.10.252	3				2	1	2	BlockProc2	List3	3																				1	1	3				ColorProc2	List4									3	BUTTON1.png	BUTTON2.PNG	BUTTON3.png	BUTTON4.png	yellowcircle2.png				9	1	3	x	1							0	TrialProc	ColorList2							0	x	0	0	376083	0	z	1019	color
Wisconsin	1171	1	<?xml version="1.0"?>\n<Clock xmlns:dt="urn:schemas-microsoft-com:datatypes"><Description dt:dt="string">E-Prime Primary Realtime Clock</Description><StartTime><Timestamp dt:dt="int">0</Timestamp><DateUtc dt:dt="string">2022-11-12T07:15:46Z</DateUtc></StartTime><FrequencyChanges><FrequencyChange><Frequency dt:dt="r8">2929873</Frequency><Timestamp dt:dt="r8">57343128828</Timestamp><Current dt:dt="r8">0</Current><DateUtc dt:dt="string">2022-11-12T07:15:46Z</DateUtc></FrequencyChange></FrequencyChanges></Clock>\n	Wisconsin-1171-1	59.957	1.0.0.531	1	1509108522	Professional	2.0.10.356	2.0.10.356	11-12-2022	11/12/2022 7:15:46 AM	15:15:46	2.0.10.252	3				2	1	2	BlockProc2	List3	3																				1	1	3				ColorProc2	List4									4	BUTTON1.png	BUTTON2.PNG	BUTTON3.png	BUTTON4.png	Greencircle1.png				3	1	4	z	0							0	TrialProc	ColorList2							1	z	0	1	379636	0	z	746	color
Wisconsin	1171	1	<?xml version="1.0"?>\n<Clock xmlns:dt="urn:schemas-microsoft-com:datatypes"><Description dt:dt="string">E-Prime Primary Realtime Clock</Description><StartTime><Timestamp dt:dt="int">0</Timestamp><DateUtc dt:dt="string">2022-11-12T07:15:46Z</DateUtc></StartTime><FrequencyChanges><FrequencyChange><Frequency dt:dt="r8">2929873</Frequency><Timestamp dt:dt="r8">57343128828</Timestamp><Current dt:dt="r8">0</Current><DateUtc dt:dt="string">2022-11-12T07:15:46Z</DateUtc></FrequencyChange></FrequencyChanges></Clock>\n	Wisconsin-1171-1	59.957	1.0.0.531	1	1509108522	Professional	2.0.10.356	2.0.10.356	11-12-2022	11/12/2022 7:15:46 AM	15:15:46	2.0.10.252	3				2	1	2	BlockProc2	List3	3																				1	1	3				ColorProc2	List4									5	BUTTON1.png	BUTTON2.PNG	BUTTON3.png	BUTTON4.png	redstar4.png				8	1	5	c	1							0	TrialProc	ColorList2							0	c	1	0	382921	0	v	1268	color
Wisconsin	1171	1	<?xml version="1.0"?>\n<Clock xmlns:dt="urn:schemas-microsoft-com:datatypes"><Description dt:dt="string">E-Prime Primary Realtime Clock</Description><StartTime><Timestamp dt:dt="int">0</Timestamp><DateUtc dt:dt="string">2022-11-12T07:15:46Z</DateUtc></StartTime><FrequencyChanges><FrequencyChange><Frequency dt:dt="r8">2929873</Frequency><Timestamp dt:dt="r8">57343128828</Timestamp><Current dt:dt="r8">0</Current><DateUtc dt:dt="string">2022-11-12T07:15:46Z</DateUtc></FrequencyChange></FrequencyChanges></Clock>\n	Wisconsin-1171-1	59.957	1.0.0.531	1	1509108522	Professional	2.0.10.356	2.0.10.356	11-12-2022	11/12/2022 7:15:46 AM	15:15:46	2.0.10.252	3				2	1	2	BlockProc2	List3	3																				1	1	3				ColorProc2	List4									6	BUTTON1.png	BUTTON2.PNG	BUTTON3.png	BUTTON4.png	Redcircle2.png				7	1	6	c	0							0	TrialProc	ColorList2							1	c	0	0	386724	0	c	1897	color
Wisconsin	1171	1	<?xml version="1.0"?>\n<Clock xmlns:dt="urn:schemas-microsoft-com:datatypes"><Description dt:dt="string">E-Prime Primary Realtime Clock</Description><StartTime><Timestamp dt:dt="int">0</Timestamp><DateUtc dt:dt="string">2022-11-12T07:15:46Z</DateUtc></StartTime><FrequencyChanges><FrequencyChange><Frequency dt:dt="r8">2929873</Frequency><Timestamp dt:dt="r8">57343128828</Timestamp><Current dt:dt="r8">0</Current><DateUtc dt:dt="string">2022-11-12T07:15:46Z</DateUtc></FrequencyChange></FrequencyChanges></Clock>\n	Wisconsin-1171-1	59.957	1.0.0.531	1	1509108522	Professional	2.0.10.356	2.0.10.356	11-12-2022	11/12/2022 7:15:46 AM	15:15:46	2.0.10.252	3				2	1	2	BlockProc2	List3	3																				1	1	3				ColorProc2	List4									7	BUTTON1.png	BUTTON2.PNG	BUTTON3.png	BUTTON4.png	yellowtriangle3.png				10	1	7	x	0							0	TrialProc	ColorList2							1	x	0	1	391161	0	x	1460	color
Wisconsin	1171	1	<?xml version="1.0"?>\n<Clock xmlns:dt="urn:schemas-microsoft-com:datatypes"><Description dt:dt="string">E-Prime Primary Realtime Clock</Description><StartTime><Timestamp dt:dt="int">0</Timestamp><DateUtc dt:dt="string">2022-11-12T07:15:46Z</DateUtc></StartTime><FrequencyChanges><FrequencyChange><Frequency dt:dt="r8">2929873</Frequency><Timestamp dt:dt="r8">57343128828</Timestamp><Current dt:dt="r8">0</Current><DateUtc dt:dt="string">2022-11-12T07:15:46Z</DateUtc></FrequencyChange></FrequencyChanges></Clock>\n	Wisconsin-1171-1	59.957	1.0.0.531	1	1509108522	Professional	2.0.10.356	2.0.10.356	11-12-2022	11/12/2022 7:15:46 AM	15:15:46	2.0.10.252	3				2	1	2	BlockProc2	List3	3																				1	1	3				ColorProc2	List4									8	BUTTON1.png	BUTTON2.PNG	BUTTON3.png	BUTTON4.png	bluestar3.png				2	1	8	v	0							0	TrialProc	ColorList2							1	v	0	1	395164	0	v	1264	color
Wisconsin	1171	1	<?xml version="1.0"?>\n<Clock xmlns:dt="urn:schemas-microsoft-com:datatypes"><Description dt:dt="string">E-Prime Primary Realtime Clock</Description><StartTime><Timestamp dt:dt="int">0</Timestamp><DateUtc dt:dt="string">2022-11-12T07:15:46Z</DateUtc></StartTime><FrequencyChanges><FrequencyChange><Frequency dt:dt="r8">2929873</Frequency><Timestamp dt:dt="r8">57343128828</Timestamp><Current dt:dt="r8">0</Current><DateUtc dt:dt="string">2022-11-12T07:15:46Z</DateUtc></FrequencyChange></FrequencyChanges></Clock>\n	Wisconsin-1171-1	59.957	1.0.0.531	1	1509108522	Professional	2.0.10.356	2.0.10.356	11-12-2022	11/12/2022 7:15:46 AM	15:15:46	2.0.10.252	3				2	1	2	BlockProc2	List3	3																				1	1	3				ColorProc2	List4									9	BUTTON1.png	BUTTON2.PNG	BUTTON3.png	BUTTON4.png	bluecross1.png				1	1	9	v	1							0	TrialProc	ColorList2							0	v	0	0	398966	0	c	2678	color
Wisconsin	1171	1	<?xml version="1.0"?>\n<Clock xmlns:dt="urn:schemas-microsoft-com:datatypes"><Description dt:dt="string">E-Prime Primary Realtime Clock</Description><StartTime><Timestamp dt:dt="int">0</Timestamp><DateUtc dt:dt="string">2022-11-12T07:15:46Z</DateUtc></StartTime><FrequencyChanges><FrequencyChange><Frequency dt:dt="r8">2929873</Frequency><Timestamp dt:dt="r8">57343128828</Timestamp><Current dt:dt="r8">0</Current><DateUtc dt:dt="string">2022-11-12T07:15:46Z</DateUtc></FrequencyChange></FrequencyChanges></Clock>\n	Wisconsin-1171-1	59.957	1.0.0.531	1	1509108522	Professional	2.0.10.356	2.0.10.356	11-12-2022	11/12/2022 7:15:46 AM	15:15:46	2.0.10.252	3				2	1	2	BlockProc2	List3	3																				1	1	3				ColorProc2	List4									10	BUTTON1.png	BUTTON2.PNG	BUTTON3.png	BUTTON4.png	greencross4.png				4	1	10	z	1							0	TrialProc	ColorList2							0	z	0	1	404187	0	c	1121	color
